battery_operation_count,hand,timestamp,attitude_roll,attitude_pitch,attitude_yaw,rotationRate_x,rotationRate_y,rotationRate_z,gravity_x,gravity_y,gravity_z,userAcceleration_x,userAcceleration_y,userAcceleration_z,device_batteryLevel
11,1,485606.534516,-0.17990133874058015,0.061291555276027754,-0.011062819701539628,0.7734562158584595,-0.21213173866271973,-0.2650676667690277,-0.17859651148319244,-0.06125318631529808,-0.9820138812065125,0.14524079859256744,-0.01790940761566162,0.09804177284240723,1.0
11,1,485606.584748,-0.18363525806998257,0.06972072378516142,-0.003748551652182072,-0.09270087629556656,0.12837432324886322,0.21392875909805298,-0.18216127157211304,-0.06966425478458405,-0.9807977080345154,-0.08425718545913696,-0.006889089941978455,-0.09621340036392212,1.0
11,1,485606.63501,-0.1711644384924989,0.06752677552469141,0.003367795365156092,0.024188289418816566,0.1792830526828766,0.1387830227613449,-0.16994169354438782,-0.06747546792030334,-0.983141303062439,-0.013575762510299683,-0.03724559396505356,-0.07401812076568604,1.0
11,1,485606.68524200004,-0.21595864686410154,0.09410618679399244,0.0014183800091557414,0.14424684643745422,-0.5055419206619263,-0.640496015548706,-0.21333575248718262,-0.09396734833717346,-0.9724494814872742,-0.022748231887817383,0.22450628876686096,-0.00281602144241333,1.0
11,1,485606.73550500005,-0.1928058713973627,0.11108462343396608,-0.02843087851243507,-0.18936537206172943,-0.24033311009407043,-0.1284288614988327,-0.19043250381946564,-0.1108563020825386,-0.9754210710525513,0.09697240591049194,0.004319436848163605,0.01202690601348877,1.0
11,1,485606.78576700005,-0.19990354336499708,0.030004745765598202,-0.016121008764319676,-0.22601962089538574,1.1284922361373901,0.6538242101669312,-0.19848541915416718,-0.030000243335962296,-0.9796445965766907,-0.15570160746574402,-0.133940190076828,-0.10536211729049683,1.0
11,1,485606.835999,-0.18811491792277862,0.035558190100768224,-0.011662160300529118,0.2720608115196228,0.10095824301242828,0.0806763768196106,-0.186889186501503,-0.03555069863796234,-0.981737494468689,-0.03389023244380951,-0.11909712851047516,0.046572089195251465,1.0
11,1,485606.88625562505,-0.18549962365766218,0.039886766436387104,-0.010137736748244294,0.24304552376270294,0.08765914291143417,-0.08310569822788239,-0.18429091572761536,-0.03987618908286095,-0.9820624589920044,0.0071516335010528564,0.015523161739110947,0.047248005867004395,1.0
11,1,485606.936487625,-0.18003702047281625,0.04427068641432154,-0.010984584487356347,0.2589397132396698,0.10483972728252411,0.04446063190698624,-0.17889054119586945,-0.04425622522830963,-0.9828730821609497,0.028652504086494446,0.02188684418797493,-0.09123885631561279,1.0
11,1,485606.986749625,-0.17732452958618308,0.05264571330043318,0.0012749832702320949,0.1338605284690857,0.005864504724740982,0.22546528279781342,-0.176152303814888,-0.052621398121118546,-0.9829553961753845,0.005574285984039307,-0.09421393275260925,-0.02327018976211548,1.0
11,1,485607.036981625,-0.16569777763359567,0.05568506546872607,0.0008063198727796092,0.1110578402876854,-0.008619556203484535,-0.19167692959308624,-0.1646849364042282,-0.05565629154443741,-0.9847747087478638,0.024471908807754517,-0.05620589107275009,0.09877312183380127,1.0
11,1,485607.087243625,-0.17105566568266412,0.07181734354455484,-0.008335705875223573,-0.08803146332502365,-0.11713499575853348,-0.09139931201934814,-0.16978390514850616,-0.07175562530755997,-0.9828654527664185,0.0011132508516311646,0.013497568666934967,0.08676254749298096,1.0
11,1,485607.13750662503,-0.17262591255446846,0.07413013011169943,-0.0053679515592248974,-0.10372143983840942,-0.012773796916007996,0.15354125201702118,-0.1712980717420578,-0.07406225800514221,-0.9824315309524536,-0.0069398432970047,-0.038166143000125885,-0.10147655010223389,1.0
11,1,485607.18773862504,-0.16881608664162684,0.07426080608591472,-0.0027462382617576306,0.09919455647468567,0.15871725976467133,-0.05060404911637306,-0.16755232214927673,-0.07419256865978241,-0.983067512512207,-0.0021254122257232666,-0.0625109151005745,-0.04123973846435547,1.0
11,1,485607.23800062505,-0.16437509049324156,0.07992743236852995,-0.0090856032297125,-0.08348384499549866,-0.0018689760472625494,-0.18298928439617157,-0.16311347484588623,-0.07984235882759094,-0.9833713173866272,0.02279365062713623,-0.04685136675834656,0.0701633095741272,1.0
11,1,485607.28823262505,-0.16598580842215846,0.07567251304357192,-0.02062229321148202,-0.23735693097114563,-0.027982722967863083,-0.17616678774356842,-0.1647518277168274,-0.07560031116008759,-0.9834334850311279,-0.030133411288261414,0.015953704714775085,0.02637171745300293,1.0
11,1,485607.338495625,-0.16238787744943664,0.07927301554473784,-0.0277042407264609,-0.052581723779439926,0.09284242242574692,-0.08492283523082733,-0.16116739809513092,-0.07919001579284668,-0.9837448596954346,-0.02151082456111908,0.00690913200378418,-0.11111903190612793,1.0
11,1,485607.388757625,-0.16007141024952057,0.07917328895494655,-0.033501612211761206,-0.09830030798912048,0.03895268216729164,-0.13651813566684723,-0.15888941287994385,-0.07909060269594193,-0.9841233491897583,0.043304070830345154,-0.050471775233745575,0.006187558174133301,1.0
11,1,485607.438989625,-0.15896293251025384,0.06870565119785467,-0.04526597323034892,-0.2254161834716797,-0.038414712995290756,-0.2761526107788086,-0.15792083740234375,-0.06865160912275314,-0.9850624203681946,-0.03450775146484375,-0.03684765845537186,0.03019791841506958,1.0
11,1,485607.489251625,-0.14651154538594333,0.06367862923218555,-0.06709601927265771,-0.3482106328010559,0.3408513367176056,-0.5574619174003601,-0.14569206535816193,-0.06363560259342194,-0.9872812628746033,-0.09178046882152557,-0.057397112250328064,0.04457801580429077,1.0
11,1,485607.53948362503,-0.12268843784457235,0.05483843477672483,-0.11284865340544495,-0.44319766759872437,0.6581451892852783,-1.2310447692871094,-0.12219690531492233,-0.05481095239520073,-0.9909912347793579,-0.13810276985168457,-0.08718733489513397,-0.02278745174407959,1.0
11,1,485607.58974662505,-0.07520382677472899,0.026719171493277908,-0.19457592676583094,-0.7561063766479492,1.1013396978378296,-1.8981086015701294,-0.07510614395141602,-0.026715992018580437,-0.9968175888061523,-0.19717168807983398,-0.14798188209533691,0.055304527282714844,1.0
11,1,485607.64000862505,-0.09292128838558235,0.05141681580067721,-0.2245027485798083,0.8443130254745483,-0.8373947739601135,-0.31775128841400146,-0.09266500174999237,-0.05139416456222534,-0.9943700432777405,-0.13226480782032013,0.09915417432785034,0.11752372980117798,1.0
11,1,485607.690240625,-0.13994377100502955,0.10685691049209137,-0.23705585444077965,1.0201187133789062,-0.8943018317222595,-0.3301989436149597,-0.13869182765483856,-0.10665366798639297,-0.9845758080482483,-0.21203143894672394,0.0016579478979110718,0.02983337640762329,1.0
11,1,485607.740503625,-0.17661576425290432,0.13993554511243053,-0.2618867838595205,0.20774127542972565,-0.848248302936554,-0.649022102355957,-0.17398153245449066,-0.13947929441928864,-0.9748209714889526,-0.06104959547519684,-0.036210402846336365,0.030973315238952637,1.0
11,1,485607.790735625,-0.2109048753670094,0.15414370933512897,-0.29059036931065013,0.40887054800987244,-0.8268389701843262,-0.6079521775245667,-0.2068626880645752,-0.15353402495384216,-0.9662479758262634,-0.028366804122924805,0.03215034306049347,-0.029067575931549072,1.0
11,1,485607.8410061667,-0.25099240267005013,0.19024771947502103,-0.3115921552211238,0.6118679046630859,-0.8819522857666016,-0.5512516498565674,-0.24388423562049866,-0.1891021579504013,-0.9511891603469849,0.09451593458652496,-0.1339569240808487,-0.13635051250457764,1.0
11,1,485607.8912691667,-0.2882365516938052,0.2203338406718045,-0.33188519590018123,0.4137550890445709,-0.7896721959114075,-0.5029190182685852,-0.277389794588089,-0.21855540573596954,-0.9355685114860535,0.12409999966621399,-0.0030327290296554565,-0.15497714281082153,1.0
11,1,485607.9415001667,-0.32430308755692355,0.24473864343552545,-0.34724324041050614,0.2300563007593155,-0.7805348038673401,-0.3516133725643158,-0.3091527819633484,-0.2423027604818344,-0.9196270704269409,0.1415502429008484,0.06467519700527191,0.05097472667694092,1.0
11,1,485607.9917631667,-0.3559011857864238,0.2554853623265398,-0.3639963667108501,0.27738237380981445,-0.6895482540130615,-0.43876686692237854,-0.3371252715587616,-0.2527150511741638,-0.9069076776504517,0.0856299102306366,0.2595662474632263,0.25825655460357666,1.0
11,1,485608.0419951667,-0.3942016657712805,0.273568239806262,-0.3829502138712593,-0.0073495302349328995,-0.8623660802841187,-0.464454710483551,-0.3697887361049652,-0.2701686918735504,-0.8889685869216919,0.1136242151260376,0.006435781717300415,0.059088826179504395,1.0
11,1,485608.0922571667,-0.43441913941345595,0.264657987237198,-0.4063083897233742,-0.6432515382766724,-0.9682167172431946,-0.22740544378757477,-0.40622925758361816,-0.2615791857242584,-0.8755307793617249,0.036051034927368164,0.11683431267738342,-0.041034162044525146,1.0
11,1,485608.1424891667,-0.4750911434462117,0.2234524920618546,-0.4319714236872962,-0.89301598072052,-0.8778665065765381,-0.015049749054014683,-0.44604721665382385,-0.2215975970029831,-0.8671426177024841,0.021654516458511353,0.1926516741514206,0.11790555715560913,1.0
11,1,485608.1927521667,-0.5219856377422938,0.19677703843167127,-0.44546155990067354,-0.5857481956481934,-1.1021945476531982,0.005874657072126865,-0.4889802038669586,-0.19550958275794983,-0.8501025438308716,0.08361521363258362,-0.02821478247642517,0.08980286121368408,1.0
11,1,485608.2430141667,-0.5818151966715296,0.16279865388789805,-0.4764679663970443,-1.7727667093276978,-1.5156664848327637,-0.3272809386253357,-0.542275071144104,-0.16208048164844513,-0.8244195580482483,0.07012242078781128,-0.38943320512771606,-0.20560967922210693,1.0
11,1,485608.2932461667,-0.5969150553680151,0.07224149565650108,-0.5803879231602768,-1.5654841661453247,0.6056503653526306,-0.882131814956665,-0.5606275796890259,-0.0721786767244339,-0.8249163627624512,-0.3145250082015991,0.1785019040107727,-0.7793011665344238,1.0
11,1,485608.3435091667,-0.5549533624062591,0.08350676529165432,-0.6282470407135458,-0.4268679916858673,0.608065664768219,-0.8856672048568726,-0.5250675678253174,-0.08340974152088165,-0.8469632863998413,0.06680035591125488,-0.03782133758068085,0.08889138698577881,1.0
11,1,485608.3937401667,-0.5316885654025655,0.061750670786113654,-0.68402481910208,-1.030237078666687,0.20757168531417847,-0.5085250735282898,-0.5060232281684875,-0.06171143427491188,-0.860309362411499,-0.004429042339324951,0.13506042957305908,0.15658926963806152,1.0
11,1,485608.4440031667,-0.5295614794475737,0.028874874769907962,-0.714062456050579,-0.6478872299194336,-0.026596378535032272,0.043619804084300995,-0.504944384098053,-0.02887086197733879,-0.8626689314842224,-0.05837959051132202,0.1728222668170929,-0.07983595132827759,1.0
11,1,485608.4942651667,-0.5256634930622558,0.015139889938714233,-0.712470941009488,-0.226186141371727,0.09608465433120728,0.23569385707378387,-0.5017294883728027,-0.01513931155204773,-0.8648920655250549,-0.009653568267822266,0.04445144534111023,-0.07247066497802734,1.0
11,1,485608.5444971667,-0.5117918814087064,0.0015767676527811034,-0.7120609564855124,-0.04933709278702736,0.35929054021835327,0.05838480219244957,-0.48973968625068665,-0.0015767669538035989,-0.8718672394752502,0.023385316133499146,-8.644163608551025e-05,0.042475759983062744,1.0
11,1,485608.5947601667,-0.49847124724832437,0.002546478545847089,-0.7114526911219102,-0.009879367426037788,0.23283164203166962,-0.04904528334736824,-0.4780817925930023,-0.0025464757345616817,-0.8783115744590759,0.05753430724143982,-0.07956106960773468,-0.012420237064361572,1.0
11,1,485608.6449921667,-0.48789533202959073,-0.00841900587178874,-0.7193377025429123,-0.5407155752182007,0.2013583928346634,0.00406267587095499,-0.4687511622905731,0.008418906480073929,-0.8832900524139404,0.07791253924369812,-0.058147311210632324,-0.05431675910949707,1.0
11,1,485608.69525416667,-0.4760475013683214,-0.01604766121518766,-0.7265625392551491,-0.11120608448982239,0.13540278375148773,0.056332118809223175,-0.45821067690849304,0.016046972945332527,-0.8886986374855042,0.03117823600769043,0.04846718907356262,-0.03842538595199585,1.0
11,1,485608.7455171667,-0.4662135798343399,-0.01412417256521113,-0.7220288488928973,0.0326232872903347,0.05464102700352669,0.12931716442108154,-0.44946229457855225,0.014123703353106976,-0.8931875228881836,-0.003449082374572754,0.019842371344566345,-0.006058692932128906,1.0
11,1,485608.7957491667,-0.4588635365826193,-0.012905390457954498,-0.7124221704133349,0.1408969610929489,0.0796131044626236,0.13426974415779114,-0.44289252161979675,0.012905032373964787,-0.8964816331863403,-0.021783381700515747,-0.006755739450454712,-0.003115534782409668,1.0
11,1,485608.84600725,-0.4518073775114855,-0.0061972466018726784,-0.7034936974193481,0.36280208826065063,0.1521904468536377,0.05346737429499626,-0.43658381700515747,0.0061972071416676044,-0.8996420502662659,-0.03431767225265503,0.054822683334350586,0.03382784128189087,1.0
11,1,485608.89623925,-0.44626846454795954,0.0048661578025937,-0.6960350079522513,0.20589333772659302,0.1724168062210083,0.004496804438531399,-0.4315972924232483,-0.004866138566285372,-0.9020531177520752,-0.02862304449081421,0.021330371499061584,0.013610124588012695,1.0
11,1,485608.94650125003,-0.4403246440034652,0.005613667802670065,-0.6955283672953558,0.07938026636838913,0.21166491508483887,-0.07450207322835922,-0.4262263774871826,-0.005613638088107109,-0.9045989513397217,-0.027325868606567383,-0.009965583682060242,-0.03383183479309082,1.0
11,1,485608.99676425004,-0.4318041807247045,0.01575599772246711,-0.6974406816645686,0.21170921623706818,0.2642786204814911,-0.20397667586803436,-0.4184580445289612,-0.015755346044898033,-0.9080992937088013,-0.04449358582496643,-0.020942039787769318,-0.05119025707244873,1.0
11,1,485609.04699625005,-0.41825112833090267,0.02951797676359271,-0.7069473093445457,0.11051052808761597,0.34962737560272217,-0.37819012999534607,-0.4059859812259674,-0.029513690620660782,-0.9134024977684021,-0.11084446310997009,-0.02663864940404892,-0.0371437668800354,1.0
11,1,485609.09725825005,-0.4025329549818624,0.03494565513070191,-0.7312875113611694,-0.36722296476364136,0.33982452750205994,-0.5446534752845764,-0.39151087403297424,-0.034938544034957886,-0.9195098280906677,-0.14358434081077576,-0.08450725674629211,0.062347352504730225,1.0
11,1,485609.14749025,-0.38603099569859234,0.02773063756048611,-0.7670253142084298,-0.26645419001579285,0.3486078679561615,-0.6789945363998413,-0.3763696551322937,-0.02772708423435688,-0.9260544776916504,-0.12474420666694641,0.0018634423613548279,-0.01779317855834961,1.0
11,1,485609.19775325,-0.37081469851493476,0.02921461987014854,-0.8067884655500634,-0.3754008412361145,0.3938657343387604,-0.8081057667732239,-0.3622201979160309,-0.029210465028882027,-0.9316346049308777,-0.09967860579490662,-0.058085061609745026,-0.0044768452644348145,1.0
11,1,485609.24801525,-0.3540554498986353,0.027603443475992296,-0.8566939236642944,-0.4355023205280304,0.3576323986053467,-1.0216654539108276,-0.3465724587440491,-0.027599938213825226,-0.9376169443130493,-0.07116743922233582,-0.10254228115081787,0.015497803688049316,1.0
11,1,485609.29824725003,-0.33818703530035543,0.016180290965994663,-0.9238367314748023,-0.8914976119995117,0.2957771420478821,-1.302634358406067,-0.33173391222953796,-0.016179585829377174,-0.9432341456413269,-7.420778274536133e-06,-0.12137839198112488,0.0812804102897644,1.0
11,1,485609.34850925003,-0.3232449906980061,0.007893853381417768,-1.004107589375455,-0.34445294737815857,0.18796390295028687,-1.5769306421279907,-0.3176352381706238,-0.00789377186447382,-0.9481800198554993,0.05553501844406128,-0.009074002504348755,0.09449654817581177,1.0
11,1,485609.39874125004,-0.3204414691447526,0.02326103772566091,-1.0892475687498997,-0.2389734983444214,-0.08741648495197296,-1.8150317668914795,-0.31490033864974976,-0.023258939385414124,-0.9488396048545837,0.06923383474349976,-0.016551248729228973,0.03782886266708374,1.0
11,1,485609.44900425005,-0.32499562245394015,0.039777990410421446,-1.1824976040770039,-0.22232942283153534,-0.21554164588451385,-1.8606748580932617,-0.3190520405769348,-0.03976750001311302,-0.9469023942947388,0.060797035694122314,0.03876042366027832,0.07268059253692627,1.0
11,1,485609.49926625,-0.34048079726740366,0.06414158698823022,-1.2670678270177695,0.04307466000318527,-0.6005167365074158,-1.6859380006790161,-0.3332535922527313,-0.06409761309623718,-0.9406557679176331,0.18985146284103394,0.08776400238275528,0.11091339588165283,1.0
11,1,485609.54949825,-0.382455905773477,0.09651030335663278,-1.3390133982093804,-0.25340983271598816,-1.024843692779541,-1.3728153705596924,-0.3714633285999298,-0.09636055678129196,-0.9234334826469421,0.1730380654335022,0.08906685560941696,0.05912989377975464,1.0
11,1,485609.59976125,-0.4315667950784672,0.10400295898826246,-1.397451577974014,-0.15731053054332733,-1.2142261266708374,-0.9229471683502197,-0.41603419184684753,-0.10381557047367096,-0.9034034013748169,0.09376853704452515,0.31144189834594727,0.0697699785232544,1.0
11,1,485609.64999325003,-0.4904444468116328,0.11550631826387754,-1.4215609329340224,-0.10506963729858398,-1.178517460823059,-0.17069943249225616,-0.46787935495376587,-0.1152496486902237,-0.8762455582618713,0.01533418893814087,0.323638916015625,-0.06342118978500366,1.0
11,1,485609.70025525003,-0.543542646030052,0.1095788998592039,-1.4156999102394854,-0.17928092181682587,-1.0497819185256958,0.4434853196144104,-0.5140693783760071,-0.1093597337603569,-0.8507484197616577,0.07196122407913208,0.2366485595703125,-0.17371141910552979,1.0
11,1,485609.75048725004,-0.5891822337776037,0.07864607721089391,-1.402302895016482,-0.5441256165504456,-0.8086975812911987,0.654549777507782,-0.5539636611938477,-0.07856503129005432,-0.8288254141807556,0.046044349670410156,0.12316647171974182,-0.22944790124893188,1.0
11,1,485609.80074925005,-0.6243295718761398,0.01757091922113932,-1.4010329261367624,-1.2585241794586182,-0.6235589385032654,0.7207217216491699,-0.5844631195068359,-0.01757001504302025,-0.8112298846244812,0.11697959899902344,0.019065380096435547,-0.054248690605163574,1.0
11,1,485609.85099475004,-0.6608036056173475,-0.05011090095634212,-1.4091279918885375,-1.0745420455932617,-0.8451061248779297,0.6321197748184204,-0.6129809617996216,0.05008993297815323,-0.7885081171989441,0.16479980945587158,0.01062476634979248,0.09279888868331909,1.0
11,1,485609.90122675005,-0.7214964282837327,-0.12386166492026028,-1.4344394607323605,-2.196990728378296,-1.3993455171585083,0.4843939542770386,-0.6554486155509949,0.12354519963264465,-0.7450659275054932,0.03150147199630737,-0.16166165471076965,0.22440552711486816,1.0
11,1,485609.95148875006,-0.7627666378808119,-0.2527008522632128,-1.5335871975041988,-3.4844934940338135,0.3163524866104126,0.01612556353211403,-0.6689807176589966,0.25001993775367737,-0.6999673843383789,-0.4413708448410034,0.04232320189476013,-0.025877952575683594,1.0
11,1,485610.00172075,-0.813293845866952,-0.3329266859429116,-1.6391936795811766,-1.454231858253479,-0.961565375328064,-0.5469168424606323,-0.6866589784622192,0.32681041955947876,-0.6493796110153198,0.08567631244659424,-0.6151862144470215,-0.005298733711242676,1.0
11,1,485610.05198375,-0.8933502950735593,-0.3235941819376864,-1.6707495915383266,-0.12430638074874878,-1.6201149225234985,-0.7200504541397095,-0.738735556602478,0.3179762363433838,-0.5942728519439697,-0.12909281253814697,0.4384476840496063,-0.4171407222747803,1.0
11,1,485610.10224575,-0.9862101815110192,-0.27959825786207626,-1.6693246752676296,1.1578311920166016,-2.0231943130493164,-0.5261482000350952,-0.8015551567077637,0.275969535112381,-0.5304234623908997,0.32775449752807617,-0.18856722116470337,0.17411547899246216,1.0
11,1,485610.15247775003,-1.0735749724580892,-0.22783386783687823,-1.652204971167665,0.5176451206207275,-1.652092456817627,-0.7737535238265991,-0.8561978936195374,0.22586789727210999,-0.46465861797332764,0.24090242385864258,-0.07282224297523499,0.14370524883270264,1.0
11,1,485610.20273975004,-1.1443904552666166,-0.17137705563292627,-1.6586179519788424,0.31082257628440857,-1.3601861000061035,-1.2595936059951782,-0.8971200585365295,0.17053939402103424,-0.407541960477829,0.010706484317779541,0.024422138929367065,-0.06921887397766113,1.0
11,1,485610.25297175004,-1.2076132447418195,-0.11002592726454588,-1.6706336592247686,0.15724244713783264,-1.0884795188903809,-1.0533360242843628,-0.9291176199913025,0.10980407148599625,-0.35310304164886475,-0.4086204171180725,0.09535032510757446,0.009200453758239746,1.0
11,1,485610.30323475006,-1.2643938781434814,-0.06754412183782502,-1.6807604963813276,0.03488091006875038,-1.200832724571228,-0.7029401659965515,-0.9512499570846558,0.06749277561903,-0.3009425401687622,-0.36582767963409424,0.008663833141326904,-0.1401280164718628,1.0
11,1,485610.35349675,-1.3255707029380188,-0.035545994493723955,-1.687172847095188,0.14135871827602386,-1.1948720216751099,-0.6797059178352356,-0.9694689512252808,0.035538509488105774,-0.24262163043022156,-0.07475101947784424,0.16564863920211792,-0.10884928703308105,1.0
11,1,485610.40372875,-1.3852687227474192,0.006654511914599953,-1.6868836967729066,0.18620871007442474,-1.1998344659805298,-0.8968850374221802,-0.9828163981437683,-0.006654462777078152,-0.1844608634710312,-0.13316559791564941,0.18197792768478394,-0.09637713432312012,1.0
11,1,485610.45399175,-1.453163644959693,0.05608624357291437,-1.6772176990137881,0.43388229608535767,-1.5093097686767578,-0.9634389281272888,-0.9915269613265991,-0.05605684220790863,-0.11717694997787476,-0.18101942539215088,0.11150732636451721,-0.21088701486587524,1.0
11,1,485610.50422375003,-1.5288567131980273,0.10348937309319794,-1.6554132802379642,0.5696447491645813,-1.2856800556182861,-0.7858192324638367,-0.9937745332717896,-0.10330474376678467,-0.04170297458767891,-0.37059009075164795,0.08075225353240967,-0.2079308032989502,1.0
11,1,485610.55448575004,-1.577810839092381,0.11681302432960905,-1.6422464483658632,-0.21399128437042236,-0.6058748364448547,0.20616455376148224,-0.993159830570221,-0.11654754728078842,0.006966646295040846,-0.5199016332626343,0.10083097219467163,-0.18390750885009766,1.0
11,1,485610.60474875005,-1.5931951951703078,0.0957830413064663,-1.675434914553855,-0.190744549036026,-0.37072089314460754,0.531785786151886,-0.9951658844947815,-0.09563665091991425,0.022294318303465843,-0.07079780101776123,0.04406195878982544,-0.157059907913208,1.0
11,1,485610.65497975005,-1.6218700103596668,0.07957403547351981,-1.6137989640450587,2.2899622917175293,-0.37641414999961853,0.09128797054290771,-0.9955351948738098,-0.07949008792638779,0.05088990554213524,0.044332802295684814,0.24657383561134338,-0.1773242950439453,1.0
11,1,485610.70524275,-1.626719657983196,0.06053643886924323,-1.4788678176895969,3.095824718475342,0.3658314347267151,0.32809874415397644,-0.9966073036193848,-0.06049947068095207,0.05579177290201187,0.046320438385009766,0.35418540239334106,-0.07768809795379639,1.0
11,1,485610.75547475,-1.614461312424318,0.03608351295728187,-1.3144317424577898,3.388801097869873,0.8553136587142944,0.27624592185020447,-0.9983964562416077,-0.03607568144798279,0.0436226949095726,-0.27552932500839233,0.2928658723831177,-0.11236357688903809,1.0
11,1,485610.80573675,-1.5461250450046764,0.012006609871305975,-1.1960580083522443,1.4444270133972168,1.8036158084869385,0.49953120946884155,-0.9996233582496643,-0.012006320990622044,-0.02466699294745922,-0.29366588592529297,0.02531200647354126,0.029320955276489258,1.0
11,1,485610.85600475,-1.436339268543559,-0.01736004423966735,-1.1475962229460839,0.6442318558692932,2.5021541118621826,0.8568724989891052,-0.9908249974250793,0.01735917292535305,-0.13403210043907166,-0.24884480237960815,-0.06858295202255249,0.19373971223831177,1.0
11,1,485610.90623675,-1.3036619460313617,-0.06725948064318504,-1.1077409626425132,0.6244736909866333,2.6528515815734863,1.2834193706512451,-0.9623501300811768,0.06720878183841705,-0.26337161660194397,-0.16559481620788574,-0.03641653060913086,0.18745917081832886,1.0
11,1,485610.95649875,-1.1618781164383272,-0.120049865704568,-1.0515471329084165,0.7399482131004333,2.7098186016082764,1.4094212055206299,-0.9109473824501038,0.11976171284914017,-0.394755095243454,-0.026125431060791016,-0.03417515754699707,0.12505602836608887,1.0
11,1,485611.00673075,-1.0148037352217507,-0.1652400987941494,-0.9863421875289502,0.72157883644104,2.7115983963012695,1.3785525560379028,-0.8378074169158936,0.16448916494846344,-0.5205975770950317,0.09217143058776855,-0.06262150406837463,0.20692265033721924,1.0
11,1,485611.05699375004,-0.877360465069314,-0.19711991342580248,-0.9124118691617162,0.9482917189598083,2.2680675983428955,1.3345940113067627,-0.7541614174842834,0.195845827460289,-0.626805305480957,0.15230894088745117,-0.143904909491539,0.36345386505126953,1.0
11,1,485611.10725575004,-0.7633539818611801,-0.2055409206806203,-0.825217154554694,1.1810173988342285,1.6931473016738892,1.2418400049209595,-0.6767962574958801,0.204096719622612,-0.7073127627372742,0.11380797624588013,-0.0859173983335495,0.35402601957321167,1.0
11,1,485611.15748775005,-0.6790586629837259,-0.19571572557583414,-0.7346607579238249,1.3038060665130615,0.9465489983558655,1.1721458435058594,-0.6160702705383301,0.1944686472415924,-0.7633081078529358,0.13976716995239258,-0.07566371560096741,0.1437097191810608,1.0
11,1,485611.20774975006,-0.6298581177338322,-0.1845913240121389,-0.6600394467555387,0.8907482624053955,0.5716221332550049,0.8717496991157532,-0.5790232419967651,0.1835448145866394,-0.7943823337554932,-0.017183423042297363,-0.0633360892534256,0.09263062477111816,1.0
11,1,485611.25798175,-0.5993532744088188,-0.17381285786479034,-0.6094455496670317,0.6398004293441772,0.33858826756477356,0.528285801410675,-0.555608868598938,0.1729390025138855,-0.8132593631744385,-0.11474025249481201,0.0654490739107132,0.19399666786193848,1.0
11,1,485611.30824475,-0.5768142894110437,-0.16410440758199996,-0.5802055408459151,0.4305225610733032,0.3304203152656555,0.3050583600997925,-0.5380296111106873,0.1633688360452652,-0.8269429802894592,-0.11980736255645752,0.0876535028219223,0.27245384454727173,1.0
11,1,485611.35847675,-0.5613846672108617,-0.1565229024457025,-0.5539757117105486,0.40976396203041077,0.15573792159557343,0.4281080663204193,-0.5258508920669556,0.15588456392288208,-0.8361702561378479,-0.056790709495544434,0.04354780912399292,0.0872383713722229,1.0
11,1,485611.40873875003,-0.5530440385962447,-0.14998168856677127,-0.5086713004485756,0.7566573023796082,-0.11223971098661423,0.9071637392044067,-0.5193830132484436,0.14942002296447754,-0.841376781463623,0.0977521538734436,-0.03513169288635254,-0.08600664138793945,1.0
11,1,485611.45900175004,-0.5523898137392144,-0.13754747333495557,-0.4393922436228489,1.0371285676956177,-0.13711827993392944,1.0944228172302246,-0.5197672247886658,0.13711416721343994,-0.8432328701019287,0.1319345235824585,-0.23211538791656494,-0.07658219337463379,1.0
11,1,485611.50923275005,-0.5476259759422799,-0.11571107441769443,-0.358989115974256,1.2706685066223145,-0.15695254504680634,1.152879238128662,-0.5171800851821899,0.11545303463935852,-0.8480537533760071,0.26133596897125244,-0.18579605221748352,-0.03163069486618042,1.0
11,1,485611.55949575006,-0.5491380394204476,-0.08128815063088865,-0.28696782233038437,1.4867095947265625,-0.12032783031463623,0.5092685222625732,-0.5202286839485168,0.08119865506887436,-0.850158154964447,0.19866490364074707,0.003502883017063141,-0.04905754327774048,1.0
11,1,485611.60972775,-0.5434094489449964,-0.02324294589812974,-0.234495403530296,1.4355989694595337,0.27365580201148987,0.17450205981731415,-0.5169176459312439,0.02324085310101509,-0.8557195663452148,-0.0063214898109436035,-0.03883533179759979,-0.23001956939697266,1.0
11,1,485611.65998975,-0.5133672038001831,0.02100311040149245,-0.20063791833259212,0.778363049030304,0.8712748289108276,0.13874046504497528,-0.4910048544406891,-0.02100156620144844,-0.8709036111831665,-0.08319863677024841,-0.0025274865329265594,-0.0901864767074585,1.0
11,1,485611.71025275,-0.46272248594150334,0.044232347030313875,-0.17743754538350756,0.5310136079788208,1.0532469749450684,0.23631447553634644,-0.44594934582710266,-0.044217925518751144,-0.8939653038978577,-0.03207799792289734,0.09051309525966644,0.08766037225723267,1.0
11,1,485611.76048475003,-0.4155560613512805,0.0558770692058263,-0.15626551941561917,0.24934248626232147,0.8588173389434814,0.2927989363670349,-0.4030686616897583,-0.05584799498319626,-0.9134640693664551,-0.0405806303024292,0.07200705260038376,0.12446260452270508,1.0
11,1,485611.81074675004,-0.382069066927498,0.05115056608002818,-0.14245274593871082,-0.1444365531206131,0.5098564624786377,0.2667904794216156,-0.3723534941673279,-0.051128264516592026,-0.9266815781593323,-0.02051454782485962,0.032710906118154526,0.21740728616714478,1.0
11,1,485611.86098087503,-0.36899551226887195,0.03645233103782289,-0.136266890868495,-0.3602543771266937,0.06536068767309189,0.19463200867176056,-0.36043912172317505,-0.03644425794482231,-0.9320704936981201,-0.045734554529190063,0.04457719251513481,0.3283565044403076,1.0
11,1,485611.91124387505,-0.3748482593448844,0.01859381102532839,-0.13609721939473923,-0.17710483074188232,-0.23329195380210876,0.05779368057847023,-0.366068035364151,-0.01859273947775364,-0.9304022789001465,-0.06390941143035889,0.2095564901828766,0.3733649253845215,1.0
11,1,485611.96150587505,-0.3955149457258052,0.010884845161930943,-0.13899899181326444,-0.24427293241024017,-0.5055168867111206,0.011496007442474365,-0.38526058197021484,-0.010884630493819714,-0.922743558883667,0.012640953063964844,-0.1260324865579605,0.010023832321166992,1.0
11,1,485612.01173787506,-0.4270669317183522,-0.007746543729283021,-0.13926522680489456,-0.3212890326976776,-0.71579509973526,0.22756832838058472,-0.41419050097465515,0.007746466435492039,-0.9101572036743164,0.19324323534965515,0.026219597086310387,-0.2024374008178711,1.0
11,1,485612.061999875,-0.4638241815785092,-0.02055042457476104,-0.12392182421694412,0.08521322906017303,-0.7127386927604675,0.5048986077308655,-0.4472770392894745,0.020548978820443153,-0.8941593170166016,0.1791648268699646,0.033085666596889496,-0.12412071228027344,1.0
11,1,485612.112231875,-0.4943679498351476,-0.026453100066821833,-0.09093885248322435,0.2658936679363251,-0.6927490830421448,0.6343672871589661,-0.4743093252182007,0.026450015604496002,-0.8799607157707214,0.14119470119476318,-0.1306675523519516,0.041215598583221436,1.0
11,1,485612.162494875,-0.5374970432413263,-0.023021938754781566,-0.07229514960340218,0.22249382734298706,-1.1223106384277344,-0.10562673956155777,-0.5118519067764282,0.023019904270768166,-0.858765184879303,0.016261637210845947,-0.2852421998977661,-0.03893989324569702,1.0
11,1,485612.21275687503,-0.5982873571548352,-0.01759674566334756,-0.0950041524317297,-0.3614385724067688,-1.0002098083496094,-0.9524133801460266,-0.5631409287452698,0.017595836892724037,-0.8261735439300537,-0.3506163954734802,0.3824438452720642,-0.1365950107574463,1.0
11,1,485612.26298887504,-0.6327990940838997,0.0013951380116976491,-0.1730311080205226,-0.8457862734794617,-0.5354060530662537,-1.7450906038284302,-0.591403603553772,-0.0013951375149190426,-0.8063744306564331,-0.22396504878997803,-0.13807019591331482,0.0894707441329956,1.0
11,1,485612.31325187505,-0.6656848007050387,0.018824982671518928,-0.2637397509166682,-0.8558777570724487,-0.8829627633094788,-1.5490838289260864,-0.6174883842468262,-0.01882387138903141,-0.786354660987854,-0.13258790969848633,0.10149598866701126,0.087380051612854,1.0
11,1,485612.363483875,-0.715252611378948,0.02890800720765362,-0.3510532048104778,-0.9415518641471863,-1.252402663230896,-1.3847167491912842,-0.6555340886116028,-0.028903981670737267,-0.754612147808075,-0.07682675123214722,0.23866654932498932,-0.05709439516067505,1.0
11,1,485612.413745875,-0.7888258283356075,0.03972141150986372,-0.4280528310515837,-0.9145878553390503,-1.6837557554244995,-1.1687952280044556,-0.7089666128158569,-0.03971096873283386,-0.7041230201721191,-0.08159118890762329,0.15311428904533386,-0.06966543197631836,1.0
11,1,485612.464007875,-0.877913758789325,0.05008090464923694,-0.491831044491916,-0.6477315425872803,-1.9684505462646484,-0.8555560111999512,-0.7684432864189148,-0.050059974193573,-0.6379568576812744,-0.029911816120147705,0.1409718245267868,0.001665353775024414,1.0
11,1,485612.514239875,-0.9808533846050738,0.05823282756601226,-0.536404882970896,-0.6792230010032654,-2.174454927444458,-0.5395094752311707,-0.8295637965202332,-0.0581999197602272,-0.555370569229126,0.013310074806213379,0.0807218998670578,-0.019183874130249023,1.0
11,1,485612.56450287503,-1.0873375826012122,0.05881312678358794,-0.5826810472831078,-0.7820599675178528,-2.097233772277832,-0.5507657527923584,-0.8838614225387573,-0.05877922847867012,-0.46404048800468445,0.0496940016746521,0.23912286758422852,0.06397026777267456,1.0
11,1,485612.61473487504,-1.1802993502815122,0.07694759301523296,-0.6252778519313218,-0.6192671656608582,-1.779542088508606,-0.7019624710083008,-0.9219834208488464,-0.07687167823314667,-0.37952154874801636,0.11839455366134644,-0.10185453295707703,-0.08182793855667114,1.0
11,1,485612.66499687504,-1.2608850050231133,0.0938117092334139,-0.6704113016536806,-0.8285943865776062,-1.6438668966293335,-0.5592815279960632,-0.9481726884841919,-0.09367416799068451,-0.30363309383392334,0.1725836992263794,-0.10786391794681549,-0.13949739933013916,1.0
11,1,485612.71525987505,-1.3406127170851663,0.10120149553241335,-0.7369728655988682,-1.761752963066101,-1.7891405820846558,-0.4290171265602112,-0.9686426520347595,-0.10102883726358414,-0.22698885202407837,0.10676521062850952,-0.20884665846824646,-0.21865934133529663,1.0
11,1,485612.765491875,-1.419372610088831,0.09176313133147052,-0.8668953049253496,-3.243750810623169,-1.837003469467163,-0.1148425042629242,-0.9843977689743042,-0.09163440763950348,-0.15021099150180817,0.0093458890914917,-0.21232068538665771,-0.28600722551345825,1.0
11,1,485612.815753875,-1.48910976386289,0.0728467280748435,-1.0408650707542881,-3.3997108936309814,-1.3872352838516235,-0.000767233083024621,-0.9940221309661865,-0.07278231531381607,-0.08137933909893036,-0.17882943153381348,0.06968477368354797,-0.3189655542373657,1.0
11,1,485612.86601187504,-1.5236366608011893,0.06275791884039171,-1.1721278083811337,-1.7870135307312012,-0.43127894401550293,0.07547226548194885,-0.9969214797019958,-0.06271672993898392,-0.04704936966300011,-0.16709524393081665,0.2659637928009033,-0.3617182970046997,1.0
11,1,485612.91627387505,-1.5195076727517849,0.05482420932669621,-1.2140868340529836,-0.18645314872264862,0.32116132974624634,0.14301900565624237,-0.9971845149993896,-0.054796747863292694,-0.05118914321064949,0.05316901206970215,0.2168450951576233,-0.241840660572052,1.0
11,1,485612.96653687506,-1.491387876790438,0.04961077344208001,-1.199634129871214,0.5038051009178162,0.7485228180885315,0.11043498665094376,-0.9956222772598267,-0.049590423703193665,-0.07922741770744324,0.20945894718170166,0.10439997911453247,-0.19480514526367188,1.0
11,1,485613.016768875,-1.4566507850122536,0.04902427885972988,-1.1672257842769265,0.5921072363853455,0.6855697631835938,0.056631311774253845,-0.9922987818717957,-0.04900464415550232,-0.11376098543405533,0.29970240592956543,0.08274182677268982,-0.17115116119384766,1.0
11,1,485613.067030875,-1.4275909494292045,0.05105194663424978,-1.148176976285158,0.18750068545341492,0.5211373567581177,-0.04883163422346115,-0.9884738326072693,-0.05102977156639099,-0.1425304263830185,0.26261329650878906,0.09952220320701599,-0.1269398331642151,1.0
11,1,485613.117262875,-1.405687487865154,0.05457261199301843,-1.1576562969495905,-0.5153586268424988,0.3098113536834717,-0.1439068764448166,-0.9849315881729126,-0.054545529186725616,-0.16411493718624115,0.1735912561416626,0.14109337329864502,-0.034630775451660156,1.0
11,1,485613.16752587503,-1.3964993054127366,0.059197421435812185,-1.2002822278696605,-0.9778494834899902,-0.00033804564736783504,-0.3235001564025879,-0.9831231832504272,-0.05916285142302513,-0.17311201989650726,-0.12797605991363525,0.20262598991394043,0.017182469367980957,1.0
11,1,485613.21778787504,-1.3845185094449735,0.06407154048832624,-1.251013629184952,-0.9544429779052734,0.5013864040374756,-0.07706519961357117,-0.9806836247444153,-0.06402771174907684,-0.18482230603694916,-0.4345995783805847,0.39996522665023804,0.05683159828186035,1.0
11,1,485613.26801987505,-1.3525182764242674,0.04388158521385688,-1.2775777614457626,-0.28594154119491577,0.5671347379684448,0.6613729596138,-0.9753316640853882,-0.043867502361536026,-0.2163403332233429,-0.26479583978652954,0.3625778257846832,0.139054536819458,1.0
11,1,485613.31828187505,-1.3376432525902116,-0.011905389040803181,-1.2477489056355422,0.9039005637168884,0.005874624475836754,1.6627709865570068,-0.9728736877441406,0.011905107647180557,-0.23103003203868866,0.023487091064453125,0.14579448103904724,-0.054675519466400146,1.0
11,1,485613.368513875,-1.3485226541164705,-0.08876925735227946,-1.1555957748466041,1.6766645908355713,-0.4015406668186188,1.9573986530303955,-0.9715582132339478,0.08865272253751755,-0.21957993507385254,-0.061263442039489746,-0.035063862800598145,-0.09206557273864746,1.0
11,1,485613.418776875,-1.3491440199689961,-0.15589712798261782,-1.062707868150386,1.1381527185440063,0.003983344417065382,1.4655574560165405,-0.9637045860290527,0.1552664041519165,-0.21717563271522522,-0.21770715713500977,-0.051231980323791504,0.002835392951965332,1.0
11,1,485613.469038875,-1.3230516790061966,-0.20276022851359565,-1.0110633375288365,0.611525297164917,0.4860323369503021,0.8335150480270386,-0.9496076703071594,0.20137377083301544,-0.24019461870193481,-0.17218798398971558,-0.03351181745529175,0.22687369585037231,1.0
11,1,485613.519270875,-1.2850859826146457,-0.22133766796971255,-0.9669790046832039,0.814544141292572,0.6103833317756653,0.4786485731601715,-0.9360552430152893,0.21953485906124115,-0.27496349811553955,-0.1072797179222107,-0.12757009267807007,0.15408337116241455,1.0
11,1,485613.56953387504,-1.2537427699730617,-0.2262938990138928,-0.9117205973257362,1.1515389680862427,0.17775267362594604,0.4131583869457245,-0.9259334802627563,0.22436745464801788,-0.3038196563720703,-0.04602086544036865,-0.14868387579917908,0.013154983520507812,1.0
11,1,485613.61976587505,-1.2348652033204128,-0.22280374646078774,-0.8550465515237015,0.8841656446456909,0.06983987987041473,0.1366601288318634,-0.9207670092582703,0.2209649235010147,-0.3215000033378601,-0.059030354022979736,-0.1624779999256134,0.1566135287284851,1.0
11,1,485613.67002787505,-1.2248536198240494,-0.20725295294997367,-0.8340549037722034,0.1161000058054924,0.21887226402759552,-0.3556581437587738,-0.920623779296875,0.20577241480350494,-0.33182719349861145,-0.06842041015625,-0.12827301025390625,0.30762678384780884,1.0
11,1,485613.720259875,-1.2150383290722542,-0.18095318725360204,-0.8510843519425338,-0.25950437784194946,0.3384787440299988,-0.7427787780761719,-0.9220775961875916,0.17996728420257568,-0.342614084482193,-0.07351261377334595,-0.061787962913513184,0.2738274931907654,1.0
11,1,485613.770521875,-1.2116810926680393,-0.14783569718506814,-0.888942357601887,-0.6237573027610779,0.2998424768447876,-0.8505544066429138,-0.9259961843490601,0.14729778468608856,-0.34761252999305725,-0.15772885084152222,-0.002140939235687256,0.29698383808135986,1.0
11,1,485613.820784875,-1.2352783108600955,-0.11379475186178424,-0.9251392820369779,-0.012127142399549484,-0.7199990153312683,-0.8543679714202881,-0.9381328225135803,0.11354931443929672,-0.3271287977695465,-0.13382762670516968,0.12309923768043518,0.02363145351409912,1.0
11,1,485613.87100262503,-1.2787402303432853,-0.07363093466981158,-0.8956500468239701,1.3811988830566406,-0.936216413974762,-0.2972330152988434,-0.9550591111183167,0.07356441766023636,-0.28714174032211304,-0.03448861837387085,0.08248719573020935,-0.24227720499038696,1.0
11,1,485613.92126462504,-1.31226033736533,-0.05730678486392215,-0.8258295684773137,1.174813151359558,-0.41198429465293884,0.3058986961841583,-0.9651782512664795,0.05727542191743851,-0.25524577498435974,0.12284731864929199,-0.06688845157623291,-0.09408891201019287,1.0
11,1,485613.97149662505,-1.315102592191825,-0.06612442284289174,-0.8041213972952104,-0.37943780422210693,0.03301509469747543,0.158769428730011,-0.965373694896698,0.06607624888420105,-0.252363920211792,0.3653675317764282,-0.24910542368888855,0.09458804130554199,1.0
11,1,485614.021759625,-1.3215137362380676,-0.07692077291576896,-0.8496586328058241,-1.1133803129196167,-0.1464347094297409,-0.1675831526517868,-0.9662241339683533,0.07684493809938431,-0.24597927927970886,0.3997262716293335,-0.1535813808441162,0.00339508056640625,1.0
11,1,485614.072021625,-1.3458724397742667,-0.07051687331184243,-0.891629951599663,-0.32450762391090393,-0.6942654252052307,-0.4571476876735687,-0.9723883271217346,0.07045844197273254,-0.22247785329818726,0.23673152923583984,0.014899224042892456,-0.2961989641189575,1.0
11,1,485614.122253625,-1.382141883733116,-0.04486090571243687,-0.8893610507357931,0.46514230966567993,-0.6526919007301331,-0.44998639822006226,-0.9812691807746887,0.044845860451459885,-0.18734869360923767,0.01418238878250122,0.09899872541427612,-0.48763906955718994,1.0
11,1,485614.172516625,-1.404668758745625,-0.024112545928021284,-0.8524045141598874,0.8821364045143127,-0.31781962513923645,-0.10556545108556747,-0.9859459400177002,0.024110209196805954,-0.16531643271446228,0.05935603380203247,0.0011125802993774414,-0.29940521717071533,1.0
11,1,485614.222747625,-1.4074874681301612,-0.02291979478320438,-0.823497828993791,0.1653531938791275,0.14308349788188934,0.19538594782352448,-0.9864357113838196,0.022917788475751877,-0.1625412404537201,0.12663346529006958,-0.15614226460456848,-0.13743126392364502,1.0
11,1,485614.27301062504,-1.3912231450872952,-0.03884464415813007,-0.8449026787112979,-0.976248562335968,0.5071568489074707,0.2199220061302185,-0.9831777811050415,0.03883487731218338,-0.17847490310668945,0.107460618019104,-0.09207278490066528,-0.05667829513549805,1.0
11,1,485614.32327262504,-1.3703753578448932,-0.05856835409233245,-0.9179000259023551,-1.8246139287948608,0.3781227767467499,-0.014152796007692814,-0.9783024191856384,0.05853487551212311,-0.19874051213264465,0.0021824240684509277,0.010755300521850586,-0.02808135747909546,1.0
11,1,485614.37350462505,-1.3659485368426365,-0.06809851799369561,-1.0052496210109267,-1.4862394332885742,0.11126254498958588,-0.23771333694458008,-0.9768223166465759,0.06804589927196503,-0.20294658839702606,-0.24531513452529907,0.25360938906669617,-0.15935808420181274,1.0
11,1,485614.423767625,-1.360131637828093,-0.06908150720455196,-1.0488853737115835,-0.2897084057331085,0.17884160578250885,-0.006669430062174797,-0.975559413433075,0.06902657449245453,-0.2086111158132553,-0.2605855464935303,0.2705272436141968,-0.104117751121521,1.0
11,1,485614.473999625,-1.357515557703681,-0.08141094305016311,-1.0327475947087117,0.7243545651435852,-0.16859671473503113,0.574529767036438,-0.9741047024726868,0.08132104575634003,-0.21096640825271606,-0.05722159147262573,0.09717625379562378,-0.10283058881759644,1.0
11,1,485614.524261625,-1.3685179522328033,-0.11135410567445699,-0.9677844660330367,1.2354116439819336,-0.3935737907886505,1.025297999382019,-0.9735442399978638,0.11112412065267563,-0.19965749979019165,0.04213249683380127,-0.044427961111068726,-0.12253183126449585,1.0
11,1,485614.57452462503,-1.373136435555078,-0.15120585353667815,-0.9142511173327589,0.49650439620018005,0.0030593732371926308,0.819087564945221,-0.9693410992622375,0.15063033998012543,-0.19413471221923828,-0.04697054624557495,-0.12670454382896423,-0.03155803680419922,1.0
11,1,485614.62475662504,-1.3568933951123188,-0.17733788057122635,-0.9126358731976792,-0.506447434425354,0.5540463924407959,0.2508428692817688,-0.9618839025497437,0.17640982568264008,-0.20894628763198853,-0.08261078596115112,-0.11462700366973877,0.16959387063980103,1.0
11,1,485614.67501862504,-1.3264540150583535,-0.18404430928015078,-0.9466193157753504,-0.7277302742004395,0.852760910987854,-0.18181639909744263,-0.953909695148468,0.18300706148147583,-0.23783256113529205,-0.10032004117965698,-0.01575547456741333,0.20859670639038086,1.0
11,1,485614.72525062505,-1.300510486676355,-0.17703736662795472,-0.9768928840156085,-0.2540592551231384,0.4663960635662079,-0.25536444783210754,-0.9486317038536072,0.176114022731781,-0.26283347606658936,-0.06801563501358032,0.0690489113330841,0.06466758251190186,1.0
11,1,485614.77551262506,-1.2916991861380556,-0.1646491681403382,-0.9719102974866106,0.37389037013053894,0.11620159447193146,-0.1644347757101059,-0.9483035206794739,0.1639062613248825,-0.27176204323768616,-0.11134308576583862,-0.024730831384658813,-0.01215827465057373,1.0
11,1,485614.825775625,-1.288824778898111,-0.15280606108556125,-0.9584149569675748,0.23798049986362457,-0.05066554248332977,-0.18716906011104584,-0.9493162631988525,0.15221209824085236,-0.27500754594802856,-0.10509651899337769,-0.03148454427719116,0.07549881935119629,1.0
11,1,485614.87600375,-1.2861179450713736,-0.13692107657475072,-0.9587824646870847,-0.09476479887962341,0.22088609635829926,-0.39267924427986145,-0.9507691264152527,0.13649365305900574,-0.27822014689445496,-0.12901908159255981,-0.008243560791015625,0.10930532217025757,1.0
11,1,485614.92626575,-1.2681720023864274,-0.1192844225980695,-0.985745567595266,-0.6617758274078369,0.5555675625801086,-0.5782808661460876,-0.9477739930152893,0.11900174617767334,-0.2959083616733551,-0.0841626524925232,-0.01756131649017334,0.20521008968353271,1.0
11,1,485614.97649775003,-1.245900363685383,-0.09988190832515964,-1.0351496929494326,-0.8320308923721313,0.3979205787181854,-0.7447766065597534,-0.9429599642753601,0.09971591085195541,-0.3176189959049225,0.029736638069152832,0.05328395962715149,0.1309276819229126,1.0
11,1,485615.02676075004,-1.2496327286931646,-0.06979614558252485,-1.0795851026088392,-0.4246331453323364,-0.2823143005371094,-0.9038063883781433,-0.946557879447937,0.06973949074745178,-0.31490209698677063,-0.03143894672393799,0.14128956198692322,-0.022820711135864258,1.0
11,1,485615.07702275005,-1.2781671421220298,-0.027186104351505286,-1.0922921339806695,0.4529053270816803,-0.705879807472229,-0.7943841814994812,-0.9571342468261719,0.02718275599181652,-0.28836384415626526,-0.029636383056640625,0.22016221284866333,-0.16262495517730713,1.0
11,1,485615.12725475006,-1.3127956074487954,0.008170876581434781,-1.0552486068959444,1.1452014446258545,-0.5826767683029175,-0.19065755605697632,-0.9668691158294678,-0.008170785382390022,-0.2551392614841461,0.09644675254821777,0.14266175031661987,-0.14183342456817627,1.0
11,1,485615.17751675,-1.3292439154723605,0.014596113020695103,-1.0074291333106478,0.5821576118469238,-0.1420079469680786,0.2784998416900635,-0.9708638191223145,-0.014595595188438892,-0.23918463289737701,0.26744890213012695,-0.07514134049415588,-0.05042719841003418,1.0
11,1,485615.22774875,-1.333678566336207,-0.003682675198509954,-1.0139866930165224,-0.8073657155036926,-0.1765839159488678,0.2517731189727783,-0.9720119833946228,0.0036826669238507748,-0.23490029573440552,0.4073604941368103,-0.17426064610481262,-0.029565036296844482,1.0
11,1,485615.27801175,-1.355788862989897,-0.017705371854945483,-1.0636817115767268,-0.8994166851043701,-0.6781110167503357,-0.06058316305279732,-0.9768210053443909,0.017704447731375694,-0.21332113444805145,0.34648048877716064,0.04937320947647095,-0.19343245029449463,1.0
11,1,485615.32827375,-1.4070679486155782,-0.012190175098011865,-1.0617411002961106,0.9281482100486755,-1.2282426357269287,-0.12250694632530212,-0.986552357673645,0.012189873494207859,-0.16298560798168182,0.23853594064712524,0.2511615753173828,-0.5179836750030518,1.0
11,1,485615.37850575004,-1.4668925696913904,-0.011309761282402107,-0.9824435689923173,1.943652629852295,-1.1563571691513062,0.4323454201221466,-0.9945423007011414,0.011309520341455936,-0.10371016710996628,0.21918225288391113,0.14037811756134033,-0.4198188781738281,1.0
11,1,485615.42876875005,-1.5129099448664671,-0.03367079021228091,-0.9046565876707735,0.8846086859703064,-0.767629861831665,0.5566152334213257,-0.9977582693099976,0.03366442769765854,-0.05782121419906616,0.06276077032089233,-0.11432239413261414,-0.04772382974624634,1.0
11,1,485615.47900075006,-1.5385972348070855,-0.044834446624587396,-0.9026288241571454,-0.45509156584739685,-0.2316913902759552,0.0048912521451711655,-0.9984764456748962,0.044819425791502,-0.03216115012764931,-0.5464759469032288,0.09049549698829651,-0.03557264804840088,1.0
11,1,485615.52926275,-1.5665461668449152,-0.05373038528486487,-0.8762524103286659,1.819900631904602,-0.8650920391082764,0.31262174248695374,-0.9985474348068237,0.05370453745126724,-0.004244011826813221,-0.35489189624786377,0.6718050837516785,-0.24317723512649536,1.0
11,1,485615.57952475,-1.5849853586961906,-0.07964886800644141,-0.6642287809235403,5.582866668701172,-0.3102720379829407,0.6476921439170837,-0.9967294931411743,0.07956468313932419,0.01414357591420412,-0.19713348150253296,0.3144783079624176,0.08120858669281006,1.0
11,1,485615.62975675,-1.554870059151874,-0.12626157481785735,-0.43146529740741113,3.442307233810425,0.5013012886047363,1.0300737619400024,-0.9919137954711914,0.12592636048793793,-0.015798820182681084,-0.16607564687728882,-0.029277190566062927,0.15234971046447754,1.0
11,1,485615.68001975,-1.4965759107808985,-0.16527260094333432,-0.3184728145265172,1.2223279476165771,1.2055566310882568,0.6428222060203552,-0.9836578369140625,0.1645212173461914,-0.07314185053110123,-0.08422845602035522,-0.2730112075805664,0.324087917804718,1.0
11,1,485615.73025175004,-1.431889433812043,-0.18548595551588018,-0.3125537297810065,-0.5988474488258362,1.1832692623138428,0.0427006334066391,-0.9733796715736389,0.18442417681217194,-0.13608554005622864,-0.11643356084823608,-0.29442477226257324,0.670082151889801,1.0
11,1,485615.78051375004,-1.3854332511456238,-0.17570797205301333,-0.35850496463713294,-0.6749882698059082,0.9353217482566833,-0.6170084476470947,-0.9677362442016602,0.17480525374412537,-0.18146570026874542,-0.23869991302490234,0.048293501138687134,0.8312459588050842,1.0
11,1,485615.83077675005,-1.360728553216071,-0.13681068350773842,-0.39615589452797584,-0.7340346574783325,0.31691789627075195,-1.1529181003570557,-0.9688780307769775,0.1363842934370041,-0.20657767355442047,-0.15288710594177246,-0.20164614915847778,0.715885579586029,1.0
11,1,485615.88103054167,-1.3764817045968696,-0.07861958493091802,-0.4659060094260579,-1.5355300903320312,-0.5766229629516602,-1.6384663581848145,-0.9781494736671448,0.07853861898183823,-0.19249765574932098,-0.043853700160980225,-0.12942667305469513,0.5197224020957947,1.0
11,1,485615.9312925417,-1.4399439842779609,-0.007500142475264072,-0.5767581959397462,-1.994632601737976,-1.6105633974075317,-1.7845617532730103,-0.9914230704307556,0.007500072009861469,-0.13047556579113007,-0.051637232303619385,0.03408011794090271,0.20768505334854126,1.0
11,1,485615.9815245417,-1.5423290394515192,0.07284855044009886,-0.6731244119573259,-1.6788959503173828,-2.3483662605285645,-1.6725338697433472,-0.9969432353973389,-0.07278413325548172,-0.02838793955743313,-0.04976391792297363,0.08753937482833862,-0.3259516954421997,1.0
11,1,485616.0317865417,-1.6512236034652985,0.1503419537056856,-0.7618036609910382,-1.6945689916610718,-2.175248861312866,-1.3601150512695312,-0.9855234622955322,-0.14977623522281647,0.07943431288003922,-0.10773825645446777,0.25150659680366516,-0.5620241165161133,1.0
11,1,485616.0820495417,-1.72970640048269,0.21628153776681977,-0.8074567051692493,-0.4187805652618408,-1.2280879020690918,-1.0449177026748657,-0.9643955826759338,-0.21459928154945374,0.1545553356409073,-0.07669633626937866,0.48503080010414124,-0.5858144760131836,1.0
11,1,485616.1322815417,-1.7643923307384084,0.25218102935479997,-0.8030210396542884,0.1276886761188507,-0.17433606088161469,-0.3913169205188751,-0.9502795934677124,-0.2495165914297104,0.18630367517471313,-0.00022089481353759766,0.4181872606277466,-0.5091034173965454,1.0
11,1,485616.1825435417,-1.7534782148901191,0.24982612193383658,-0.797560309642839,0.04170816019177437,0.47309112548828125,0.35846877098083496,-0.9528318643569946,-0.2472354769706726,0.17602765560150146,0.10570961236953735,0.3449985384941101,-0.37590253353118896,1.0
11,1,485616.2327755417,-1.7194996445158353,0.21658602313511047,-0.8008086509127031,0.10351653397083282,0.7494860291481018,0.8720797300338745,-0.9658583998680115,-0.21489666402339935,0.14469444751739502,-0.011650145053863525,0.33492231369018555,-0.22854161262512207,1.0
11,1,485616.2830385417,-1.6731938194539837,0.1624701485147329,-0.8049789326459076,-0.08993259072303772,1.0301382541656494,1.262471318244934,-0.9816616773605347,-0.16175632178783417,0.10087250173091888,-0.15752899646759033,0.17652681469917297,-0.16650056838989258,1.0
11,1,485616.3333005417,-1.6114018166600248,0.09101387016915954,-0.8355454545225179,-0.5566763877868652,1.1409847736358643,1.6015807390213013,-0.9950399994850159,-0.09088826924562454,0.040426306426525116,-0.10669034719467163,0.030905991792678833,-0.04854393005371094,1.0
11,1,485616.3835325417,-1.5583892156023587,0.0077041903542239215,-0.8481197526546829,-0.08582093566656113,0.8323127031326294,1.643334984779358,-0.999893069267273,-0.0077041140757501125,-0.012406420893967152,0.06152331829071045,-0.22519078850746155,0.05386453866958618,1.0
11,1,485616.4337955417,-1.5312158886744873,-0.06416073858420282,-0.8323746483341089,0.47429269552230835,0.30809953808784485,1.2399119138717651,-0.9971602559089661,0.06411672383546829,-0.03948866203427315,0.09002524614334106,-0.3450310230255127,0.05155837535858154,1.0
11,1,485616.4840265417,-1.522987593504789,-0.10793223933372481,-0.8058132214250185,0.4159914255142212,-0.03454126790165901,0.5810825824737549,-0.9930447936058044,0.10772280395030975,-0.047512415796518326,0.10161107778549194,-0.43886905908584595,0.06330525875091553,1.0
11,1,485616.5342895417,-1.5340122117855717,-0.11527794105997073,-0.783207313703556,0.580219566822052,-0.45865902304649353,-0.11982496082782745,-0.9926908016204834,0.11502278596162796,-0.036531731486320496,0.0532376766204834,-0.23979392647743225,0.04667884111404419,1.0
11,1,485616.5845515417,-1.5632720361444121,-0.10038946377798155,-0.7273690011265075,1.5221035480499268,-0.867402970790863,-0.2863460183143616,-0.994937002658844,0.1002209261059761,-0.007486336398869753,0.037982046604156494,-0.1372997760772705,-0.07495689392089844,1.0
11,1,485616.63478354167,-1.5963358473645997,-0.09463756491440517,-0.6521254098647915,1.1817982196807861,-0.7056280970573425,-0.024523811414837837,-0.9952004551887512,0.09449636191129684,0.025422468781471252,0.11585170030593872,-0.28347644209861755,-0.05665719509124756,1.0
11,1,485616.6850465417,-1.6202279179910386,-0.08958578453094543,-0.6285857172965793,-0.13550163805484772,-0.3876186013221741,-0.3080613911151886,-0.994773268699646,0.08946600556373596,0.04921331629157066,0.060370802879333496,-0.22275154292583466,0.0004693269729614258,1.0
11,1,485616.7352785417,-1.6289406099184638,-0.05486625692572298,-0.6467668894564002,-0.3676292598247528,-0.017168013378977776,-0.9298197627067566,-0.996807873249054,0.05483873188495636,0.0580240823328495,-0.21756285429000854,0.18664684891700745,0.06395471096038818,1.0
11,1,485616.7855405417,-1.6260500349787195,-0.009413108436405292,-0.6379849923816233,0.6316829919815063,0.11997102946043015,-0.6906805038452148,-0.9984294176101685,0.009412969462573528,0.05522313714027405,-0.36781203746795654,0.4400041401386261,0.07304227352142334,1.0
11,1,485616.8358035417,-1.6206652157809658,-0.004843348596299706,-0.5902050725869369,0.9205885529518127,0.09709742665290833,0.3098801076412201,-0.9987449049949646,0.004843329545110464,0.04984762519598007,-0.14708340167999268,0.019082456827163696,-0.05999469757080078,1.0
11,1,485616.8860194167,-1.6234181351400219,-0.03972137172626171,-0.587173448677114,-0.7481433749198914,-0.21756406128406525,0.8801891207695007,-0.9978280663490295,0.03971092775464058,0.05255603790283203,0.18537384271621704,-0.18083947896957397,-0.15065479278564453,1.0
11,1,485616.9362814167,-1.6430733986397457,-0.07821955870990316,-0.6574923821442032,-1.3377090692520142,-0.3182527720928192,0.7221767902374268,-0.9943394660949707,0.07813981920480728,0.07199335098266602,0.21594291925430298,0.11821025609970093,-0.12413263320922852,1.0
11,1,485616.9865134167,-1.659221037512973,-0.09092156344067007,-0.7033431199409111,-0.7586617469787598,-0.12176608294248581,-0.06924154609441757,-0.9919787049293518,0.0907963439822197,0.08794476091861725,-0.006342828273773193,0.12177383899688721,0.017646074295043945,1.0
11,1,485617.0367754167,-1.654564726075558,-0.06284515894283373,-0.7398277963801866,-0.5399069786071777,0.36661744117736816,-0.6852160692214966,-0.994526207447052,0.06280379742383957,0.08350528031587601,-0.3783223032951355,0.29533523321151733,0.11151731014251709,1.0
11,1,485617.0870384167,-1.6346325453138808,-0.040396329889740165,-0.7247368067929967,0.9269484877586365,0.3517455458641052,-0.15137849748134613,-0.9971490502357483,0.04038534313440323,0.06374083459377289,-0.31567132472991943,0.24182593822479248,-0.05525696277618408,1.0
11,1,485617.1372704167,-1.615464491407298,-0.05429215402561371,-0.6791363583337138,0.3853584825992584,0.31251290440559387,0.4660375714302063,-0.9975305795669556,0.05426548421382904,0.04458751901984215,0.014086365699768066,-0.18504855036735535,-0.12999093532562256,1.0
11,1,485617.1875324167,-1.6052152546562408,-0.07917498885202653,-0.7224688789250289,-1.8989533185958862,0.2607566714286804,0.4682401418685913,-0.9962767958641052,0.07909229397773743,0.03430432826280594,0.2682799696922302,-0.19701221585273743,-0.09042620658874512,1.0
11,1,485617.23776441667,-1.605285406925675,-0.08423708908400476,-0.8650676245541044,-3.3208227157592773,0.27077189087867737,-0.03366955742239952,-0.9958614110946655,0.08413749933242798,0.034359969198703766,0.12032735347747803,-0.01698356866836548,0.14639568328857422,1.0
11,1,485617.2880274167,-1.6028776328489147,-0.06962064024429022,-1.0062319281542884,-1.8126283884048462,0.00576446671038866,-0.3374468684196472,-0.9970641136169434,0.06956440955400467,0.03199809789657593,-0.01627206802368164,0.4444279074668884,-0.020676136016845703,1.0
11,1,485617.3382894167,-1.6156369757788596,-0.05616928977135342,-1.0059802068407797,1.5220314264297485,-0.17894646525382996,-0.10553290694952011,-0.9974194169044495,0.056139759719371796,0.044754933565855026,-0.3032855987548828,0.6983157992362976,-0.3409280776977539,1.0
11,1,485617.3885214167,-1.609049338177775,-0.07898892971200815,-0.9115163216883956,1.753441333770752,0.15880583226680756,0.7617889642715454,-0.9961526393890381,0.0789068192243576,0.038124434649944305,-0.08674836158752441,0.1703760325908661,-0.1336597204208374,1.0
11,1,485617.4387834167,-1.5814302697127667,-0.13212681762316494,-0.8591788762237798,0.4354757070541382,0.5942044258117676,1.2191392183303833,-0.9912276268005371,0.1317427158355713,0.010541055351495743,0.10632467269897461,0.03738570213317871,0.02394390106201172,1.0
11,1,485617.4890154167,-1.5482531734683913,-0.2111335196628097,-0.8765079603061611,-0.8318051099777222,0.7458509206771851,1.835620641708374,-0.9775456786155701,0.20956838130950928,-0.022040696814656258,0.19480031728744507,-0.0026134252548217773,0.2387765645980835,1.0
11,1,485617.5392784167,-1.521272154424625,-0.31048171343384573,-0.9142516935492466,-0.6668965816497803,0.6198807954788208,1.8451355695724487,-0.9510188698768616,0.3055173456668854,-0.04713696613907814,0.03741413354873657,0.03948390483856201,0.25451910495758057,1.0
11,1,485617.5895404167,-1.512711636315575,-0.3825966851018215,-0.9332047056652095,-0.14067833125591278,0.11073790490627289,1.1190485954284668,-0.9261337518692017,0.37333065271377563,-0.053854770958423615,-0.11900174617767334,0.07015076279640198,-0.04169571399688721,1.0
11,1,485617.6397724167,-1.5002614323188295,-0.4348822837535832,-0.8854265614519529,1.6913343667984009,-0.18351127207279205,0.9716483354568481,-0.9046644568443298,0.4213036596775055,-0.06391644477844238,0.08500808477401733,-0.2149742841720581,0.11491131782531738,1.0
11,1,485617.6900354167,-1.4808386423759656,-0.4760444257959854,-0.8092754284404617,0.45914319157600403,-0.058447737246751785,0.6270346641540527,-0.8852206468582153,0.4582670032978058,-0.07984790205955505,-0.15326201915740967,-0.6141965985298157,-0.043549954891204834,1.0
11,1,485617.7402674167,-1.4936443217411313,-0.5003938411778915,-0.8505326311872585,-1.7554205656051636,-0.01148313283920288,0.32587552070617676,-0.8747837543487549,0.47977113723754883,-0.06762555241584778,-0.14720410108566284,-0.39780092239379883,-0.2329421043395996,1.0
11,1,485617.7905294167,-1.5690086555598108,-0.5244503242576897,-0.976765406196524,-1.9922056198120117,-0.42354723811149597,0.31730854511260986,-0.8655979633331299,0.5007373094558716,-0.0015474061947315931,-0.11853289604187012,0.05205810070037842,-0.1655973196029663,1.0
11,1,485617.8407914167,-1.631745275130417,-0.5340656925602422,-1.0462125652918237,-0.47694194316864014,-0.5696927905082703,0.20294985175132751,-0.8591461181640625,0.5090370774269104,0.052428990602493286,0.063751220703125,0.1818808913230896,-0.2125852108001709,1.0
11,1,485617.891026875,-1.6463612614631835,-0.5397522534359455,-1.031025048169844,0.6171316504478455,-0.4276903569698334,0.11084719747304916,-0.8553876876831055,0.5139234662055969,0.06476062536239624,0.21163469552993774,0.14907091856002808,-0.16739130020141602,1.0
11,1,485617.941289875,-1.6388461881075032,-0.5565612321679408,-0.9786135857557096,1.1709973812103271,-0.35034364461898804,0.41283875703811646,-0.8471115231513977,0.5282695293426514,0.05773497000336647,0.24579322338104248,0.11131787300109863,-0.08655881881713867,1.0
11,1,485617.991521875,-1.6197801500338287,-0.5863957573951263,-0.9164658693580895,0.7050082683563232,-0.20326854288578033,0.6355656385421753,-0.8319413661956787,0.5533624887466431,0.04078429192304611,0.1902024745941162,-0.005892455577850342,-0.12475347518920898,1.0
11,1,485618.041783875,-1.6264618211992126,-0.625677257729013,-0.9170273537227619,-0.25222912430763245,-0.19358810782432556,0.8378396034240723,-0.8093109130859375,0.585646390914917,0.04509728029370308,0.1352691650390625,0.128587007522583,-0.0033949613571166992,1.0
11,1,485618.09204687504,-1.6446622662733692,-0.6585770659123416,-0.9213163463104511,0.4292345345020294,-0.4013456404209137,0.40144971013069153,-0.7887066602706909,0.6119921207427979,0.05836474895477295,-0.15465271472930908,0.26938605308532715,0.16059887409210205,1.0
11,1,485618.14227887505,-1.6439815466548702,-0.6658310935116709,-0.9008173376238992,-0.021848678588867188,-0.26809075474739075,0.14523416757583618,-0.7842981219291687,0.6177129149436951,0.05750172957777977,-0.4043614864349365,0.08638864755630493,-0.14897823333740234,1.0
11,1,485618.19254087505,-1.6578008123139676,-0.6705462982651095,-0.8929757752993028,0.372106671333313,-0.41413775086402893,0.06949704140424728,-0.7805181741714478,0.621414065361023,0.06808045506477356,-0.18781983852386475,-0.08612048625946045,-0.08210325241088867,1.0
11,1,485618.242772875,-1.6648394312462258,-0.6668724473697168,-0.8582884324188357,0.6055289506912231,-0.6714404821395874,-0.22854486107826233,-0.78228759765625,0.6185315251350403,0.0737864077091217,0.0961761474609375,-0.19166690111160278,-0.09774279594421387,1.0
11,1,485618.293034875,-1.6691322718235417,-0.6517941252285098,-0.813199907567557,0.5438600778579712,-0.5395402312278748,-0.4543512165546417,-0.7911556363105774,0.6066136956214905,0.07805078476667404,0.2110012173652649,-0.308838427066803,-0.06791889667510986,1.0
11,1,485618.343297875,-1.6820085003881076,-0.6275182627317908,-0.7963850081959591,-0.03809918835759163,-0.3908090591430664,-0.7073624134063721,-0.804486095905304,0.5871376395225525,0.08983933180570602,0.08240967988967896,-0.256464421749115,0.09419691562652588,1.0
11,1,485618.39352987503,-1.6902929893931014,-0.5739330665325518,-0.8011725449492849,-0.16823895275592804,0.07449397444725037,-1.2471095323562622,-0.8337833881378174,0.5429391264915466,0.10011129826307297,-0.20541644096374512,-0.05682462453842163,0.1900041103363037,1.0
11,1,485618.44379187503,-1.6540602456284403,-0.5029888848622426,-0.7438124883208753,2.2025091648101807,0.08400136232376099,-1.6056455373764038,-0.873110294342041,0.4820463955402374,0.07286705821752548,-0.308743953704834,0.4900147616863251,0.05878579616546631,1.0
11,1,485618.49402387504,-1.568691980782818,-0.43833717039584635,-0.5218093639571497,4.940878391265869,-0.5348179340362549,-1.1857714653015137,-0.9054563641548157,0.4244344234466553,-0.0019053963478654623,-0.09021013975143433,0.21118566393852234,-0.11212348937988281,1.0
11,1,485618.54428687505,-1.4873454834428386,-0.3839163640474797,-0.26276200783024833,4.054227352142334,-0.2237015664577484,-0.650048017501831,-0.9239778518676758,0.3745546042919159,-0.07728622108697891,0.02184772491455078,-0.0989350974559784,-0.16218525171279907,1.0
11,1,485618.59454887506,-1.4400212655295903,-0.33956288332512474,-0.1366701901967248,1.2207586765289307,0.21803703904151917,-0.7061681747436523,-0.9348488450050354,0.3330749571323395,-0.12295665591955185,0.0822640061378479,0.04445800185203552,0.01703011989593506,1.0
11,1,485618.644780875,-1.4142096625692677,-0.2931965179743117,-0.12531019218039677,-0.2488190233707428,0.7328280806541443,-0.9456149935722351,-0.9456124305725098,0.2890138030052185,-0.1492924839258194,0.016626834869384766,0.098239004611969,0.1829533576965332,1.0
11,1,485618.695043875,-1.3753513959796773,-0.2567088102984258,-0.173522691274573,-1.2966830730438232,1.1737160682678223,-0.8282416462898254,-0.9488160610198975,0.25389859080314636,-0.18783913552761078,-0.009084880352020264,-0.06667324900627136,0.22740519046783447,1.0
11,1,485618.745274875,-1.3442752044494146,-0.2422930042245487,-0.27389927300437567,-2.0639028549194336,0.8379704356193542,-0.519649863243103,-0.9459900856018066,0.23992928862571716,-0.2180286943912506,-0.07824087142944336,0.04263296723365784,0.21113169193267822,1.0
11,1,485618.79553787503,-1.3522527163098588,-0.23596951634537827,-0.35874587841962124,-1.0977377891540527,-0.08433502167463303,-0.4928838312625885,-0.9491614103317261,0.2337857484817505,-0.2107999175786972,-0.17089474201202393,0.2071322202682495,-0.1207277774810791,1.0
11,1,485618.84579987504,-1.373863576669392,-0.21795397497128643,-0.3792812285479452,0.2831772565841675,-0.4022464156150818,-0.3456902801990509,-0.9574702978134155,0.21623246371746063,-0.1910332590341568,-0.0369754433631897,0.09823592007160187,-0.2203894853591919,1.0
11,1,485618.896043875,-1.384222456733158,-0.2021933202235033,-0.352738545198433,0.7049939036369324,-0.23970983922481537,-0.10289681702852249,-0.9626274108886719,0.20081844925880432,-0.1817145198583603,0.16604232788085938,-0.04052487015724182,-0.007662355899810791,1.0
11,1,485618.94630687503,-1.388593328005932,-0.19333282791931108,-0.3148706788768366,0.6797972917556763,-0.19438302516937256,-0.02452094852924347,-0.9651244282722473,0.1921306848526001,-0.17782069742679596,0.2565672993659973,-0.1142345666885376,0.07291650772094727,1.0
11,1,485618.99653887504,-1.3942846199197123,-0.18530977963124196,-0.29128933432577636,0.34447410702705383,-0.29389989376068115,-0.16582012176513672,-0.9676071405410767,0.18425102531909943,-0.17259015142917633,0.27578890323638916,-0.14170952141284943,-0.03781330585479736,1.0
11,1,485619.04680087505,-1.4138845331256353,-0.1678271797454412,-0.2738773234051291,0.5666918158531189,-0.6291804313659668,-0.36729636788368225,-0.97383713722229,0.16704045236110687,-0.154073104262352,0.20152872800827026,-0.024080857634544373,-0.21738684177398682,1.0
11,1,485619.097063875,-1.4450195415507958,-0.14161290950560307,-0.23172416272007168,1.1459834575653076,-0.7472839951515198,-0.37858378887176514,-0.9821693897247314,0.14114005863666534,-0.12418968230485916,0.02771681547164917,0.07443611323833466,-0.33384859561920166,1.0
11,1,485619.147295875,-1.4664350717955015,-0.1210277852157461,-0.16653128213202012,1.328906774520874,-0.3716268539428711,-0.13114438951015472,-0.9872843027114868,0.12073253840208054,-0.10340992361307144,-0.04208880662918091,0.04215504229068756,-0.20980721712112427,1.0
11,1,485619.197557875,-1.4632759331723304,-0.11645341612152428,-0.1141663062938673,0.7256664633750916,0.20016272366046906,0.134546160697937,-0.9874913096427917,0.11619038134813309,-0.1065865084528923,0.019504249095916748,-0.04053730517625809,-0.0452079176902771,1.0
11,1,485619.247789875,-1.4394340866545252,-0.12775429645866307,-0.09607026521032608,-0.014358503744006157,0.5623059272766113,0.357689768075943,-0.9833049178123474,0.12740705907344818,-0.12991727888584137,0.09197801351547241,-0.040187835693359375,0.028904080390930176,1.0
11,1,485619.298051875,-1.4137044981786187,-0.1535137220531495,-0.11274083460476444,-0.6712965369224548,0.48131540417671204,0.5263937711715698,-0.9760710000991821,0.1529114693403244,-0.1546066701412201,0.1561552882194519,-0.0439942330121994,0.01662147045135498,1.0
11,1,485619.34831487504,-1.4072334575136884,-0.18480696577706707,-0.1611957014079772,-1.3682055473327637,0.08483444154262543,0.32448679208755493,-0.9698523879051208,0.1837567836046219,-0.1600617617368698,0.07179635763168335,-0.04119391739368439,0.0899171233177185,1.0
11,1,485619.39854687505,-1.4290858706822294,-0.20196869778261922,-0.23819275438097964,-1.4815444946289062,-0.3598634600639343,-0.05332213640213013,-0.9698530435562134,0.20059840381145477,-0.13836577534675598,-0.17615830898284912,0.11132177710533142,0.07011324167251587,1.0
11,1,485619.44880887505,-1.4715903031305377,-0.1999512019296773,-0.28167142942405327,-0.09434331953525543,-0.9366884231567383,-0.16342821717262268,-0.975257158279419,0.19862151145935059,-0.09707004576921463,-0.30321574211120605,0.2887899875640869,-0.14398831129074097,1.0
11,1,485619.499040875,-1.5162676595846876,-0.19825641631447152,-0.23304332792334262,1.7120954990386963,-1.2515813112258911,0.24829722940921783,-0.9789541363716125,0.1969601958990097,-0.05343403294682503,-0.08212679624557495,0.1456911712884903,-0.2325919270515442,1.0
11,1,485619.549303875,-1.5539369039902007,-0.22128075403685912,-0.12241741092612902,2.1074962615966797,-0.899955689907074,0.6894617080688477,-0.97547847032547,0.21947932243347168,-0.016447562724351883,-0.10432493686676025,-0.10700678825378418,-0.031068265438079834,1.0
11,1,485619.599565875,-1.5582828124700963,-0.2512229940607591,-0.05440122453120373,0.531073272228241,-0.009084060788154602,0.3997238874435425,-0.9685333371162415,0.24858874082565308,-0.012120388448238373,-0.15909117460250854,-0.24272936582565308,0.14487183094024658,1.0
11,1,485619.649797875,-1.5430313742761539,-0.2564847819137675,-0.04257911155116479,0.2831176519393921,0.4183461368083954,-0.1544235795736313,-0.9669147729873657,0.25368189811706543,-0.02685324288904667,-0.10811269283294678,-0.02946925163269043,0.19311296939849854,1.0
11,1,485619.70005987503,-1.5044767816077478,-0.2447423639525714,-0.0033835800950711,1.3124924898147583,0.5484117865562439,-0.1239115372300148,-0.9680668711662292,0.24230638146400452,-0.06429604440927505,-0.03884536027908325,0.07371839880943298,0.09864354133605957,1.0
11,1,485619.75029187504,-1.469123391276883,-0.23221359973792569,0.08306888459647777,1.6739245653152466,0.054627951234579086,-0.1324263960123062,-0.968133807182312,0.23013226687908173,-0.09877359867095947,0.05657380819320679,-0.15302962064743042,0.08986246585845947,1.0
11,1,485619.80055487505,-1.4693169141642621,-0.21935275773912696,0.12880438209345108,0.15478254854679108,-0.26718688011169434,-0.18926338851451874,-0.9710170030593872,0.21759793162345886,-0.09887788444757462,0.06168472766876221,-0.21515652537345886,0.1624765396118164,1.0
11,1,485619.850786875,-1.4885841572433693,-0.20489477237520187,0.10403168084633635,-0.8215221166610718,-0.27463817596435547,-0.463729590177536,-0.9757755994796753,0.20346413552761078,-0.08040185272693634,0.05065047740936279,-0.11828956007957458,0.11038535833358765,1.0
11,1,485619.9010327917,-1.5037232728269754,-0.17748918636964398,0.05671917480510227,-0.8593578338623047,-0.04228317365050316,-0.7788777947425842,-0.98207688331604,0.17655876278877258,-0.06596985459327698,-0.07146620750427246,-0.023589402437210083,0.08942264318466187,1.0
11,1,485619.9512957917,-1.5082824200908296,-0.13525183717049602,0.018747683026237222,-0.26982513070106506,-0.035038936883211136,-0.9478669762611389,-0.9889317750930786,0.13483984768390656,-0.06190264970064163,-0.1778467893600464,0.16882529854774475,0.07061541080474854,1.0
11,1,485620.00152779167,-1.5185100769227364,-0.09359216406188124,0.04478311879546346,1.1627625226974487,-0.3134532570838928,-0.5754212141036987,-0.9942626953125,0.09345559030771255,-0.052033692598342896,-0.22119140625,0.20824119448661804,-0.22975033521652222,1.0
11,1,485620.0517897917,-1.5160206449120275,-0.08034204690021628,0.09095495983889008,0.36685648560523987,0.2551325559616089,0.013099763542413712,-0.9952792525291443,0.08025564253330231,-0.054571688175201416,-0.11914640665054321,-0.07760061323642731,-0.06890243291854858,1.0
11,1,485620.1020217917,-1.48697771861173,-0.08927400234384181,0.0697279060388823,-1.0224605798721313,0.828722357749939,0.23821060359477997,-0.992520809173584,0.08915546536445618,-0.08338708430528641,0.08456182479858398,-0.07273700833320618,0.12060332298278809,1.0
11,1,485620.1522837917,-1.4477863651062126,-0.12104465219781829,0.0007639008519356522,-1.540308952331543,0.8275583386421204,0.6966153383255005,-0.9851817488670349,0.12074927985668182,-0.12180213630199432,0.2437114119529724,-0.040198132395744324,0.12058138847351074,1.0
11,1,485620.2025467917,-1.4312048139741986,-0.17278397005418838,-0.06307741975334755,-1.277014970779419,0.229898139834404,0.9042505621910095,-0.9755275845527649,0.17192552983760834,-0.1370668113231659,0.2898738980293274,-0.06061266362667084,-0.005984365940093994,1.0
11,1,485620.2527787917,-1.4511615170957959,-0.2164758472081954,-0.11143434998065323,-0.747582733631134,-0.508056104183197,0.5476112961769104,-0.9696794748306274,0.21478906273841858,-0.1165640577673912,0.25771963596343994,-0.07134118676185608,-0.11004424095153809,1.0
11,1,485620.3030407917,-1.4897712817793427,-0.23431545360114886,-0.12236903104295795,0.17769961059093475,-0.8047128319740295,0.18203498423099518,-0.9694822430610657,0.23217719793319702,-0.0787246897816658,0.1011350154876709,-0.03028815984725952,-0.1656295657157898,1.0
11,1,485620.3532727917,-1.51850420163767,-0.23993663050119968,-0.09331854520588298,0.826054573059082,-0.5788367986679077,0.14290203154087067,-0.9700251221656799,0.23764106631278992,-0.05077096074819565,-0.02736562490463257,-0.08673164248466492,-0.22965508699417114,1.0
11,1,485620.4035357917,-1.5227597618985576,-0.2437005442638085,-0.05374383763807198,0.46190008521080017,0.027133041992783546,0.07583317160606384,-0.9693321585655212,0.2412954717874527,-0.04659923538565636,-0.07708501815795898,-0.198219895362854,-0.23335379362106323,1.0
11,1,485620.4537977917,-1.5164791162644828,-0.24169193754251456,-0.0615058180503458,-0.5946980118751526,0.1627270132303238,-0.12324856966733932,-0.9695025682449341,0.2393457293510437,-0.05271252617239952,0.03448969125747681,-0.1833307147026062,-0.18952077627182007,1.0
11,1,485620.5040297917,-1.5209866892172714,-0.22931084240664734,-0.09503488574050886,-0.6475710868835449,-0.20563308894634247,-0.20910178124904633,-0.9726153016090393,0.22730645537376404,-0.04848571866750717,0.0910082459449768,-0.12899409234523773,-0.07204347848892212,1.0
11,1,485620.5542917917,-1.539571458007633,-0.21750111828608817,-0.11833941580322468,-0.3450686037540436,-0.410084068775177,-0.22562028467655182,-0.9759637117385864,0.2157902866601944,-0.030484246090054512,0.04743582010269165,-0.0314030796289444,-0.06189244985580444,1.0
11,1,485620.6045237917,-1.5650022579422298,-0.20384464178636924,-0.13788542509519716,-0.25234341621398926,-0.3976508677005768,-0.30569466948509216,-0.9792790412902832,0.20243585109710693,-0.005674073938280344,-0.008178174495697021,0.06370794773101807,-0.12042450904846191,1.0
11,1,485620.6547867917,-1.5833745931017507,-0.18854118672741668,-0.12792436758785375,0.501012921333313,-0.4487532675266266,-0.285896360874176,-0.9822009801864624,0.1874261349439621,0.012355037033557892,-0.027808785438537598,0.2187017947435379,-0.14756309986114502,1.0
11,1,485620.7050487917,-1.5962115397709626,-0.17964622037743339,-0.08047129795338197,1.35653555393219,-0.4284684956073761,-0.0699581727385521,-0.9835892915725708,0.17868149280548096,0.02500351518392563,-0.1558455228805542,0.36056411266326904,-0.1778203248977661,1.0
11,1,485620.7552807917,-1.5990584991867556,-0.1919386260883469,0.012163863385882441,2.0204615592956543,-0.30503061413764954,0.453958123922348,-0.9812442660331726,0.19076228141784668,0.027739480137825012,-0.2201717495918274,0.2544128894805908,-0.2357320785522461,1.0
11,1,485620.8055437917,-1.580649999947218,-0.23145289630337218,0.09658656559462765,1.187748908996582,0.2691943943500519,0.9754028916358948,-0.9732869267463684,0.2293919175863266,0.009590761736035347,-0.1610972285270691,-0.03661239147186279,-0.2335745096206665,1.0
11,1,485620.855787125,-1.5490122526053918,-0.29020764965400125,0.11445658499770837,-0.5102096796035767,0.7692239284515381,1.3293367624282837,-0.9579571485519409,0.2861512005329132,-0.020871510729193687,-0.019002139568328857,-0.2448914349079132,-0.16681164503097534,1.0
11,1,485620.906049125,-1.5250587034527416,-0.3612875910965226,0.04474802568045293,-1.8679536581039429,1.050463080406189,1.3570523262023926,-0.9344642162322998,0.3534789979457855,-0.04277000203728676,0.048554182052612305,-0.24291381239891052,0.07562214136123657,1.0
11,1,485620.956312125,-1.515584320926148,-0.42635365074733556,-0.055974183342487306,-1.850290060043335,0.8718479871749878,1.0244570970535278,-0.9090923070907593,0.4135536253452301,-0.05024387314915657,-0.07868540287017822,-0.1751960813999176,0.21662575006484985,1.0
11,1,485621.006543125,-1.5233057515602155,-0.46804350225684815,-0.14087804358234032,-0.8593400120735168,0.19388973712921143,0.5016797184944153,-0.8914462924003601,0.4511410593986511,-0.042367152869701385,-0.1369655728340149,0.001098930835723877,0.08663290739059448,1.0
11,1,485621.05680612504,-1.5033010276972194,-0.4797625562286748,-0.08585999400872443,2.2907047271728516,-0.2704000174999237,0.15735049545764923,-0.885084331035614,0.46156856417655945,-0.05982991307973862,-0.148698627948761,0.05999213457107544,0.10711687803268433,1.0
11,1,485621.10703812505,-1.4408917799890053,-0.46785435390096947,0.07760563542099717,3.015542984008789,-0.095819391310215,-0.054909564554691315,-0.8850176930427551,0.4509722590446472,-0.11561892181634903,-0.13497132062911987,-0.13906735181808472,0.19040220975875854,1.0
11,1,485621.15730012505,-1.3801665529109897,-0.43400541510960944,0.21301446491412057,1.9268454313278198,0.06632325053215027,-0.485217422246933,-0.8908530473709106,0.4205082356929779,-0.17191056907176971,-0.026429057121276855,-0.2080143392086029,0.1953480839729309,1.0
11,1,485621.207563125,-1.3421515270346358,-0.39269457435056554,0.2686369616846789,0.4812577962875366,0.5270174145698547,-0.593237578868866,-0.8998367190361023,0.3826792538166046,-0.20940488576889038,-0.1178024411201477,-0.15814617276191711,0.13608640432357788,1.0
11,1,485621.257795125,-1.3169393773590046,-0.3705298311265397,0.2500450421260197,-0.7097718119621277,0.7012923359870911,-0.4561207890510559,-0.90226149559021,0.36210936307907104,-0.2340957373380661,-0.12637925148010254,-0.07307738065719604,0.0999709963798523,1.0
11,1,485621.308057125,-1.3020623223153645,-0.36238672955926454,0.19598401394087184,-1.0514482259750366,0.6694248914718628,-0.4128170907497406,-0.9014922380447388,0.3545069694519043,-0.2482670396566391,-0.10523688793182373,0.010376453399658203,0.07480514049530029,1.0
11,1,485621.358289125,-1.2917284472242019,-0.3522410888439841,0.13163384085028898,-1.2000114917755127,0.6240240931510925,-0.6591858267784119,-0.902289867401123,0.3450021743774414,-0.25854700803756714,-0.10247087478637695,0.018935203552246094,0.08899134397506714,1.0
11,1,485621.40855112503,-1.2885417708164189,-0.3293139733866065,0.050850869536170726,-1.1613819599151611,0.4451979696750641,-1.0248078107833862,-0.9088207483291626,0.32339394092559814,-0.2635551989078522,-0.1050037145614624,0.09413230419158936,0.15408861637115479,1.0
11,1,485621.45881412504,-1.2966499680854544,-0.28499826442524356,0.005631224326875359,-0.004612766671925783,-0.0560259073972702,-1.0320899486541748,-0.923825204372406,0.2811557948589325,-0.2598048150539398,-0.1677122712135315,0.2209041714668274,-0.05104720592498779,1.0
11,1,485621.50904612505,-1.2942849031608543,-0.23990960300509934,0.01636068788895928,0.5425674915313721,0.061786819249391556,-0.60804682970047,-0.9344609975814819,0.23761482536792755,-0.26518234610557556,0.010342955589294434,0.008967220783233643,-0.08137530088424683,1.0
11,1,485621.55930812506,-1.2832071216402885,-0.22105343948080458,0.012426634256082801,-0.5933083295822144,0.36932143568992615,-0.2412535548210144,-0.9355968236923218,0.21925754845142365,-0.2767394483089447,0.23619502782821655,-0.22247716784477234,0.00906980037689209,1.0
11,1,485621.609540125,-1.278088243955307,-0.22846467269508944,-0.05538325514327413,-1.7738850116729736,0.40490761399269104,-0.25612694025039673,-0.9325862526893616,0.2264823615550995,-0.2810482978820801,0.3711696267127991,-0.235103577375412,0.08195167779922485,1.0
11,1,485621.659803125,-1.2859317571545248,-0.24339869553722274,-0.16061172060048387,-1.9761689901351929,0.20402048528194427,-0.36149102449417114,-0.9314117431640625,0.24100252985954285,-0.27274394035339355,0.396026611328125,-0.11780306696891785,0.08516764640808105,1.0
11,1,485621.710065125,-1.31125481733235,-0.2276368180322297,-0.20548277613001328,0.4344903528690338,-0.6569026708602905,-0.6681442260742188,-0.9415739178657532,0.22567594051361084,-0.2500167489051819,0.2360074520111084,0.36392366886138916,-0.24409335851669312,1.0
11,1,485621.76029712503,-1.3252307831094803,-0.18160990493282883,-0.1268260448414601,2.518122673034668,-0.4446210563182831,-0.25432088971138,-0.9540473818778992,0.18061323463916779,-0.23910684883594513,0.023413896560668945,0.3435567021369934,-0.4076826572418213,1.0
11,1,485621.81056012504,-1.323017845617298,-0.16365873944028406,-0.0102756037831474,1.6935714483261108,-0.15325713157653809,0.5444629192352295,-0.9565051794052124,0.16292913258075714,-0.24197371304035187,0.05939513444900513,-0.16817817091941833,-0.3282319903373718,1.0
11,1,485621.8607777917,-1.3122541280433595,-0.19303149478174836,0.01588806586725648,-0.6059464812278748,0.31877264380455017,0.7769699096679688,-0.9488080143928528,0.191834956407547,-0.25092288851737976,0.07536441087722778,-0.1651473343372345,-0.28627800941467285,1.0
11,1,485621.9110407917,-1.2876253499490553,-0.24817892486959423,-0.021694133349504766,-1.0178718566894531,0.8923689723014832,0.9210519194602966,-0.9307556748390198,0.24563908576965332,-0.27084121108055115,0.027664244174957275,0.04832148551940918,-0.21528857946395874,1.0
11,1,485621.9613027917,-1.2374179611555136,-0.30139429500832465,-0.035208837330869595,-0.11094380170106888,1.1259562969207764,0.9134689569473267,-0.9023474454879761,0.2968519330024719,-0.3124864995479584,0.10048282146453857,0.06942003965377808,-0.23129093647003174,1.0
11,1,485622.0115347917,-1.1770539462858762,-0.33303104432018704,-0.0008443311302532008,0.6378217935562134,0.7898595333099365,0.7411685585975647,-0.872739851474762,0.32690903544425964,-0.3625679016113281,0.09252744913101196,0.06501296162605286,-0.2841148376464844,1.0
11,1,485622.0617977917,-1.1265856450535205,-0.35102993009551775,0.053407152503338676,0.9492881298065186,0.5397173762321472,0.7314600944519043,-0.847887396812439,0.34386512637138367,-0.4035390019416809,-0.12537920475006104,0.15592128038406372,-0.2407786250114441,1.0
11,1,485622.1120297917,-1.0646439011389053,-0.3640882276873447,0.13239742032870858,1.2526897192001343,0.8764445185661316,1.0962296724319458,-0.817284107208252,0.35609742999076843,-0.4530353844165802,-0.29135847091674805,0.22694090008735657,-0.2227610945701599,1.0
11,1,485622.1622917917,-0.9849183710285049,-0.3954665955309187,0.2209576400161423,0.9791039228439331,0.9146683812141418,1.5624781847000122,-0.7689158320426941,0.3852388262748718,-0.5102541446685791,-0.009175598621368408,-0.0008699297904968262,-0.0978848934173584,1.0
11,1,485622.2125547917,-0.8996030948261062,-0.42547824423274555,0.3323672333588352,1.8779051303863525,0.6104233264923096,1.668609619140625,-0.7132617235183716,0.41275644302368164,-0.5664712190628052,0.19627875089645386,0.07729482650756836,-0.06989657878875732,1.0
11,1,485622.2627867917,-0.8126272342660634,-0.3924185219616867,0.4964261667428223,3.1577703952789307,0.48654991388320923,1.2935045957565308,-0.6709032654762268,0.3824242055416107,-0.6353270411491394,-0.0906628966331482,0.16222301125526428,-0.012637436389923096,1.0
11,1,485622.3130487917,-0.7248372333722449,-0.3088409473652546,0.6579140496587284,3.082240581512451,0.7032496333122253,0.7933174967765808,-0.6316441297531128,0.3039546310901642,-0.713188111782074,-0.11602127552032471,0.2557530105113983,-0.01522064208984375,1.0
11,1,485622.3632807917,-0.6435972079905459,-0.2404362129845848,0.7662105446935346,1.6751974821090698,1.3351587057113647,0.7613344192504883,-0.5828151702880859,0.23812630772590637,-0.7769313454627991,-0.23052406311035156,0.33098071813583374,-0.07983440160751343,1.0
11,1,485622.4135427917,-0.5462810025094348,-0.23040984306889162,0.8293414578194896,0.1313152313232422,1.8722609281539917,1.0242403745651245,-0.5057838559150696,0.22837655246257782,-0.8318815231323242,-0.18235701322555542,0.284532368183136,0.03760051727294922,1.0
11,1,485622.4638057917,-0.4378896530966038,-0.2653761235159032,0.8784993469208588,-0.0005481170956045389,1.8405200242996216,1.2248409986495972,-0.40918558835983276,0.2622722387313843,-0.8739453554153442,-0.08902913331985474,0.4096180200576782,0.13917362689971924,1.0
11,1,485622.5140377917,-0.3387150149877028,-0.2522322137067503,0.9502700296706384,1.3112294673919678,1.3934264183044434,1.1284992694854736,-0.32176145911216736,0.24956616759300232,-0.9133380055427551,-0.12735050916671753,0.3693150579929352,0.20626097917556763,1.0
11,1,485622.5642997917,-0.2624847066660415,-0.18556326576483329,1.0248490115160431,1.9084994792938232,1.0390095710754395,0.8809703588485718,-0.25502631068229675,0.18450015783309937,-0.9491687417030334,-0.19118645787239075,0.16159969568252563,0.24213749170303345,1.0
11,1,485622.6145317917,-0.20980666576550602,-0.12121066082043043,1.0796245899092871,0.9221352338790894,0.7807284593582153,0.6642614603042603,-0.20674271881580353,0.12091407179832458,-0.9708950519561768,-0.20171979069709778,-0.17233619093894958,0.28807950019836426,1.0
11,1,485622.6647947917,-0.17856201761910961,-0.109269969684068,1.1146525972198904,0.13650773465633392,0.2211880385875702,0.6056004166603088,-0.176555335521698,0.10905265063047409,-0.978230893611908,-0.072498619556427,-0.11868094652891159,0.20006316900253296,1.0
11,1,485622.71505679167,-0.1821587302183649,-0.09453158967558836,1.1481723055607667,0.6450815796852112,-0.31668901443481445,0.6015862226486206,-0.18034419417381287,0.0943908616900444,-0.9790639877319336,-0.11686649918556213,-0.025222770869731903,0.1657552719116211,1.0
11,1,485622.7652887917,-0.19898568930503696,-0.05771477474255438,1.1834990889837382,0.9253368973731995,-0.39545562863349915,0.4795680046081543,-0.19734600186347961,0.057682737708091736,-0.9786354303359985,-0.10267230868339539,-0.030247438699007034,0.19917070865631104,1.0
11,1,485622.8155507917,-0.2093575514421715,-0.032671884444333034,1.2095750500021143,0.17901203036308289,-0.05791621655225754,0.33673906326293945,-0.20772060751914978,0.03266607224941254,-0.9776425957679749,-0.10311618447303772,-0.14233098924160004,0.19793373346328735,1.0
11,1,485622.86581375,-0.20376586759876986,-0.0475115060556482,1.2151827337937828,-0.6503333449363708,0.16534484922885895,0.07480387389659882,-0.20213036239147186,0.04749363288283348,-0.9782063364982605,-0.013796761631965637,-0.19796055555343628,0.155101478099823,1.0
11,1,485622.91607675,-0.19744698877827616,-0.08826491546552609,1.2039330860789275,-0.7027201056480408,0.10793310403823853,-0.12898267805576324,-0.19540292024612427,0.08815035223960876,-0.9767534136772156,0.03793221712112427,-0.10409578680992126,0.059486567974090576,1.0
11,1,485622.96633875003,-0.19736185059639474,-0.08454348386128709,1.1991505785591328,0.5902021527290344,-0.057538580149412155,-0.04274927079677582,-0.1953827291727066,0.08444280922412872,-0.9770849347114563,-0.006750449538230896,0.08778314292430878,0.0343053936958313,1.0
11,1,485623.01657075004,-0.20313256894047038,-0.058715372385873335,1.2060599949426403,0.3500231206417084,-0.16584831476211548,0.09909792989492416,-0.2013908326625824,0.05868164077401161,-0.977751612663269,-0.014521032571792603,-0.03533569350838661,0.027480006217956543,1.0
11,1,485623.06683375005,-0.21316203905459985,-0.0436985783191682,1.215426044624583,0.42351365089416504,-0.28680288791656494,0.11506208032369614,-0.2113494724035263,0.04368467256426811,-0.9764338135719299,-0.025039687752723694,-0.006010726094245911,0.05234628915786743,1.0
11,1,485623.11706575,-0.23088057888051264,-0.017414824647561278,1.2222148028702435,0.5704910159111023,-0.3750810921192169,-0.057801540940999985,-0.22880013287067413,0.017413944005966187,-0.9733176827430725,-0.12614983320236206,0.041317135095596313,0.059072017669677734,1.0
11,1,485623.16732775,-0.2461455236681843,-0.004092820431537001,1.225047920831531,-0.03882430121302605,-0.24340581893920898,0.055595092475414276,-0.2436654418706894,0.004092808812856674,-0.9698507189750671,-0.2034781277179718,0.022335410118103027,0.03900355100631714,1.0
11,1,485623.21758975,-0.2555994079988358,-0.03176694622779989,1.2304841793869068,-0.7134736776351929,-0.0953187644481659,0.3658594489097595,-0.25269782543182373,0.03176160529255867,-0.9670237898826599,-0.20587456226348877,0.09099534898996353,-0.006776869297027588,1.0
11,1,485623.26782175,-0.26121993977562463,-0.05888912457872269,1.2445561270127534,-0.017684195190668106,-0.08988364040851593,0.42244744300842285,-0.25781160593032837,0.0588550940155983,-0.9644009470939636,-0.14221280813217163,0.0969829112291336,0.04902619123458862,1.0
11,1,485623.31808475003,-0.27216697093572517,-0.0435011009330423,1.267787289611967,0.6642911434173584,-0.284271776676178,0.2893347442150116,-0.26856496930122375,0.04348738119006157,-0.9622794389724731,-0.07986947894096375,-0.04693587124347687,0.08590614795684814,1.0
11,1,485623.36831675004,-0.2956731406580761,-0.024759507771425084,1.289185452460002,0.33607593178749084,-0.5398761630058289,0.3134569227695465,-0.29129454493522644,0.02475697733461857,-0.9563130140304565,-0.14161258935928345,-0.08899647742509842,0.03817641735076904,1.0
11,1,485623.41857875005,-0.3208805608416355,-0.01658991208191042,1.3124279016855287,0.2960180640220642,-0.40007010102272034,0.4846358597278595,-0.31535887718200684,0.016589151695370674,-0.9488274455070496,-0.25193238258361816,0.02630329132080078,-0.0013983845710754395,1.0
11,1,485623.46884175006,-0.3243180153259199,-0.02725502201218638,1.337895673205121,-0.29972976446151733,0.1481856256723404,0.6164066195487976,-0.31854405999183655,0.027251647785305977,-0.9475162029266357,-0.23740991950035095,0.06417901813983917,-0.11356472969055176,1.0
11,1,485623.51907375,-0.3107461654762223,-0.0408970079470149,1.3650597126778035,0.04503884166479111,0.2551519274711609,0.6341315507888794,-0.305513471364975,0.04088560864329338,-0.9513095021247864,-0.06103318929672241,0.011421531438827515,-0.04869049787521362,1.0
11,1,485623.56933575,-0.3017174628093386,-0.053687761631362456,1.393091680933027,-0.30128467082977295,0.05637982860207558,0.5917328000068665,-0.2967323362827301,0.05366197228431702,-0.9534517526626587,0.01587909460067749,-0.015377677977085114,0.1895662546157837,1.0
11,1,485623.61956775,-0.3005061167109192,-0.07274791035072793,1.4149193066007821,0.0779467225074768,0.05653496831655502,0.43903639912605286,-0.2952207624912262,0.07268375903367996,-0.952660322189331,-0.11090719699859619,-0.03821415454149246,-0.013709306716918945,1.0
11,1,485623.66982975,-0.29519280058980174,-0.09503004122870493,1.4312249346972985,-0.6516356468200684,-0.084169901907444,0.5125881433486938,-0.28961166739463806,0.09488707780838013,-0.9524292349815369,0.02882370352745056,-0.07677488774061203,-0.19622188806533813,1.0
11,1,485623.72006175003,-0.29136774022743556,-0.1500868645720871,1.4383077719389195,-1.3793537616729736,0.20349474251270294,0.38085803389549255,-0.2840331792831421,0.1495240181684494,-0.9470837116241455,-0.09696349501609802,-0.1805298775434494,-0.10656619071960449,1.0
11,1,485623.77032475005,-0.2792654879886235,-0.21890523410877175,1.4419692105752477,-1.0765215158462524,0.4075595438480377,0.4392278492450714,-0.269071489572525,0.2171611189842224,-0.9383184313774109,-0.23048600554466248,-0.012983247637748718,-0.11838322877883911,1.0
11,1,485623.82058675005,-0.24079401178085583,-0.26946607386077015,1.4427924804956407,-1.0644270181655884,0.9612498879432678,0.19228756427764893,-0.22986802458763123,0.26621681451797485,-0.9361031651496887,-0.26782792806625366,-0.08137184381484985,-0.02010411024093628,1.0
11,1,485623.8708191667,-0.19090102393713304,-0.33316656179219095,1.4401362485016334,-1.3546987771987915,1.008382797241211,0.2347748726606369,-0.1793099045753479,0.32703709602355957,-0.9278440475463867,-0.2678489089012146,-0.06000828742980957,-0.14222431182861328,1.0
11,1,485623.9210821667,-0.14476858029371323,-0.41434486013271227,1.435707538246687,-1.6739195585250854,0.8371084928512573,0.15907779335975647,-0.13205589354038239,0.4025903046131134,-0.9058046936988831,-0.2828458249568939,-0.1262078583240509,0.06426721811294556,1.0
11,1,485623.9713141667,-0.1088017597891933,-0.4713348749183144,1.4272864277977944,-0.7652952075004578,0.7684653401374817,-0.18416312336921692,-0.09674718976020813,0.45407602190971375,-0.8856945633888245,-0.29088708758354187,-0.14445990324020386,0.12443357706069946,1.0
11,1,485624.0215761667,-0.08747761942104942,-0.5265489195202191,1.394009213163866,-1.592207431793213,0.6816406846046448,-0.7082290053367615,-0.07553204894065857,0.5025527477264404,-0.8612406849861145,-0.15383806824684143,-0.27837061882019043,0.0949748158454895,1.0
11,1,485624.0718391667,-0.09010183009109174,-0.6054087000988445,1.3281497440304608,-1.4159170389175415,0.6188348531723022,-1.1411267518997192,-0.07398778200149536,0.569098174571991,-0.8189340233802795,-0.05597132444381714,-0.14079922437667847,0.14873743057250977,1.0
11,1,485624.1220701667,-0.11317757297726175,-0.6351098209342327,1.2410091747568468,0.15899670124053955,0.48059096932411194,-1.4696094989776611,-0.0909143015742302,0.593265950679779,-0.7998563051223755,0.11957031488418579,0.020122170448303223,0.08029758930206299,1.0
11,1,485624.1723331667,-0.147565943772978,-0.5666563857997565,1.1537404695417437,1.5411717891693115,0.19299989938735962,-1.6229146718978882,-0.12405011057853699,0.5368140339851379,-0.8345311284065247,0.19251631200313568,0.06813591718673706,0.022534668445587158,1.0
11,1,485624.2225651667,-0.18823413652523338,-0.49100003422105687,1.076684056354873,1.1803936958312988,-0.21596257388591766,-1.4674146175384521,-0.16501794755458832,0.4715080261230469,-0.8662847280502319,0.250146746635437,0.09685134887695312,0.054532408714294434,1.0
11,1,485624.2728271667,-0.23018347993004157,-0.3939543655295077,1.0262401266125925,2.2135658264160156,-0.5106772184371948,-1.1901432275772095,-0.2106790393590927,0.3838428556919098,-0.8990433216094971,0.1686868518590927,0.3161083161830902,0.27822422981262207,1.0
11,1,485624.32309016667,-0.2681618243513291,-0.2866832694191935,0.9961264683503612,1.3353271484375,-0.6518115997314453,-0.9790762662887573,-0.25414562225341797,0.282772421836853,-0.9249052405357361,0.22173595428466797,-0.05039632320404053,0.14640182256698608,1.0
11,1,485624.3733221667,-0.31390322546492816,-0.2470359158988536,0.9580895684881783,0.4518090784549713,-0.7649897933006287,-0.8545024991035461,-0.29939955472946167,0.24453094601631165,-0.9222605228424072,0.13843458890914917,0.13295623660087585,0.09733986854553223,1.0
11,1,485624.4235841667,-0.3537645485239631,-0.20766506939164905,0.9353499264211328,0.5596893429756165,-0.5116532444953918,-0.5579007863998413,-0.33898860216140747,0.20617569983005524,-0.9179206490516663,0.001235276460647583,0.14680585265159607,0.0020881295204162598,1.0
11,1,485624.4738161667,-0.37699659247245093,-0.18238192437902423,0.9251013190582182,0.1372896432876587,-0.4020094573497772,-0.25396332144737244,-0.3620240092277527,0.1813725084066391,-0.9143536686897278,0.035775840282440186,0.1093226969242096,-0.19016903638839722,1.0
11,1,485624.5240791667,-0.396053434336181,-0.17441670904382253,0.9239263101313392,0.3218754529953003,-0.4403786063194275,0.015511440113186836,-0.3799271881580353,0.17353372275829315,-0.9085930585861206,0.08947613835334778,0.13756246864795685,-0.0658637285232544,1.0
11,1,485624.5743411667,-0.4165674118654278,-0.15011093370735823,0.9406706485353523,0.674362063407898,-0.45771199464797974,0.062090158462524414,-0.4000735878944397,0.14954781532287598,-0.9041994214057922,0.06410560011863708,0.06541800498962402,0.07293111085891724,1.0
11,1,485624.6245731667,-0.43384048915104667,-0.1222353601208116,0.9494700481305013,0.3046063780784607,-0.2763301432132721,-0.20745854079723358,-0.41722211241722107,0.12193118780851364,-0.9005878567695618,-0.04547014832496643,-0.23817265033721924,0.012877285480499268,1.0
11,1,485624.6748351667,-0.4471775455098436,-0.11825157656693618,0.9349178243952293,-0.29834386706352234,-0.1542791724205017,-0.33882853388786316,-0.4294024705886841,0.11797617375850677,-0.8953742980957031,-0.13343322277069092,-0.13936901092529297,-0.038417816162109375,1.0
11,1,485624.72506716667,-0.45218232413046805,-0.1262911816307634,0.914865436617787,0.0015421981224790215,-0.01659030094742775,-0.19998116791248322,-0.43344980478286743,0.125955730676651,-0.8923320174217224,-0.06351372599601746,0.060293048620224,-0.0015278458595275879,1.0
11,1,485624.7753301667,-0.45557016043262677,-0.11638752734225288,0.9145993413538686,0.1494712084531784,-0.09750322997570038,-0.026929493993520737,-0.43699777126312256,0.1161249428987503,-0.891934871673584,-0.013426423072814941,0.04436700791120529,-0.12980890274047852,1.0
11,1,485624.8255921667,-0.46259629620839776,-0.142741354963237,0.9009924965831476,-1.4015830755233765,-0.10691465437412262,0.21244293451309204,-0.44173428416252136,0.14225712418556213,-0.8857954740524292,0.029975861310958862,-0.10549870133399963,-0.3929215669631958,1.0
11,1,485624.87581725005,-0.48379044923878833,-0.1940001576397184,0.8795349153450721,-0.6417823433876038,-0.3620108962059021,0.161782905459404,-0.45641234517097473,0.19278554618358612,-0.8686318397521973,0.03819945454597473,-0.03851918876171112,-0.06334447860717773,1.0
11,1,485624.92608025,-0.49568967658737334,-0.18795227434977008,0.8884023159931195,0.5412232875823975,-0.05245421826839447,0.07117088884115219,-0.4672618508338928,0.18684762716293335,-0.864149272441864,-0.059700459241867065,0.05225759744644165,0.06591624021530151,1.0
11,1,485624.97631225,-0.4949598405354575,-0.14670640787346617,0.9132900410405138,1.0452028512954712,-0.05788382515311241,-0.04755480960011482,-0.46989375352859497,0.14618071913719177,-0.8705347180366516,-0.006882369518280029,-0.08612212538719177,0.005208730697631836,1.0
11,1,485625.02657425,-0.4975436434103786,-0.10312781327497285,0.9281468559123524,0.7954901456832886,-0.13930004835128784,-0.22745497524738312,-0.4747326672077179,0.10294511169195175,-0.8740885853767395,0.012284547090530396,-0.11390092223882675,0.04134023189544678,1.0
11,1,485625.07683625,-0.49873697171291176,-0.070791323622421,0.9320141303984462,0.2627394497394562,0.15492874383926392,-0.3083859384059906,-0.4771186411380768,0.07073221355676651,-0.875987708568573,-0.13771897554397583,-0.025138944387435913,-0.325794517993927,1.0
11,1,485625.12706825003,-0.4844814486065576,-0.09275713679361415,0.9044262929527538,-1.3967196941375732,0.3320484161376953,-0.23779509961605072,-0.4637472927570343,0.09262418001890182,-0.8811123371124268,-0.008558005094528198,-0.07660244405269623,-0.21735262870788574,1.0
11,1,485625.17733125004,-0.47153905768803295,-0.14699034129237634,0.8696631997846054,-0.14725860953330994,0.33408138155937195,0.022552236914634705,-0.44935929775238037,0.1464615911245346,-0.881263256072998,-0.06446516513824463,0.1398085504770279,0.05844831466674805,1.0
11,1,485625.22756325005,-0.4493499902362968,-0.11201479079535254,0.8890004284130604,1.0597935914993286,0.6239673495292664,0.1024283766746521,-0.4316577613353729,0.11178068816661835,-0.89508455991745,-0.2323741912841797,0.008595891296863556,0.14348238706588745,1.0
11,1,485625.27782525006,-0.395642279079279,-0.08269039103948904,0.9134954681698628,0.18895992636680603,1.086534857749939,0.18318644165992737,-0.38408398628234863,0.08259619027376175,-0.9195961356163025,-0.16315722465515137,-0.14061009883880615,-0.1615806221961975,1.0
11,1,485625.32808825,-0.34392439061573393,-0.11102948314650307,0.9084043420298639,-0.8230928778648376,0.9020878672599792,0.017969885841012,-0.3351080119609833,0.11080150306224823,-0.9356417059898376,-0.013402730226516724,-0.09635142982006073,0.038699567317962646,1.0
11,1,485625.37832025,-0.31083094848881515,-0.15811242058610353,0.8907007057079857,-1.1629623174667358,0.5755894184112549,-0.0210939422249794,-0.30203473567962646,0.1574544608592987,-0.9402036666870117,-0.07076799869537354,-0.1333760768175125,0.09627056121826172,1.0
11,1,485625.42858225,-0.29245815104978623,-0.20564997848301506,0.8768593992462941,-0.7039406895637512,0.2860640585422516,0.023686977103352547,-0.28223177790641785,0.20420348644256592,-0.9373611807823181,-0.08834317326545715,0.06181824207305908,0.15251010656356812,1.0
11,1,485625.47881425003,-0.2851632492792184,-0.22991274379589985,0.8770414893883126,-0.23896650969982147,0.04767782613635063,0.1872028261423111,-0.27391165494918823,0.22789256274700165,-0.9343646168708801,-0.04730111360549927,0.12815602123737335,0.11161071062088013,1.0
11,1,485625.52907625004,-0.2876021692147908,-0.24418274232503268,0.8862406763343547,-0.41454559564590454,-0.10895540565252304,0.25491052865982056,-0.27523913979530334,0.2417633980512619,-0.9304803609848022,-0.06947216391563416,0.03834220767021179,-0.009811997413635254,1.0
11,1,485625.57933925005,-0.29443666121153583,-0.2732944333091831,0.8842490860408895,-0.8390620946884155,-0.18507620692253113,0.031526774168014526,-0.2794305384159088,0.26990506052970886,-0.9214497208595276,0.013149380683898926,-0.10001370310783386,-0.007337510585784912,1.0
11,1,485625.62957125006,-0.3064751355455329,-0.3156440955593287,0.8652169918750328,-0.9547873735427856,-0.12735512852668762,-0.12963126599788666,-0.28679487109184265,0.31042879819869995,-0.9063014984130859,0.047155559062957764,-0.09781283140182495,0.018758773803710938,1.0
11,1,485625.67983325,-0.31986964809477275,-0.35783082528351245,0.8429414089561441,-0.8904825448989868,-0.13086339831352234,-0.19355221092700958,-0.2945255935192108,0.3502432703971863,-0.889147937297821,0.056808918714523315,-0.01180332899093628,-0.010784924030303955,1.0
11,1,485625.73006525,-0.33289744801119825,-0.3779563738632628,0.8243075491558264,-0.3203161954879761,-0.15940095484256744,-0.1875825822353363,-0.3037186563014984,0.36902186274528503,-0.8783949613571167,0.09107217192649841,-0.029498517513275146,-0.005394101142883301,1.0
11,1,485625.78032825,-0.34396475450438235,-0.38358109389255013,0.8154556347790158,-0.26977530121803284,-0.16938267648220062,-0.01721862703561783,-0.31271639466285706,0.37424370646476746,-0.8730119466781616,0.10484594106674194,-0.06564998626708984,-0.03789198398590088,1.0
11,1,485625.83059025,-0.35184137805660376,-0.3955514041925158,0.8147022740647852,-0.24584947526454926,-0.2117292732000351,0.11835486441850662,-0.31801632046699524,0.3853170871734619,-0.8662542104721069,0.14312008023262024,0.056195974349975586,-0.016558289527893066,1.0
11,1,485625.8808140417,-0.3614182296523189,-0.4093203127463627,0.8123666447685547,-0.41171014308929443,-0.25966405868530273,0.07217147201299667,-0.3243907392024994,0.39798587560653687,-0.8581246137619019,0.1469462811946869,-0.008840978145599365,-0.047301411628723145,1.0
11,1,485625.9310760417,-0.36886430162127315,-0.4341673145174795,0.8113697095650824,-0.43034079670906067,-0.1926436424255371,0.19185194373130798,-0.3271041512489319,0.42065513134002686,-0.8461986184120178,0.11796718835830688,0.07269203662872314,-0.020897328853607178,1.0
11,1,485625.9813080417,-0.37201040778911926,-0.45801037422450447,0.8218183659652288,-0.25465133786201477,-0.21855014562606812,0.4303498864173889,-0.32602566480636597,0.44216442108154297,-0.8355823159217834,0.11102932691574097,0.11363697052001953,-0.03139162063598633,1.0
11,1,485626.0315710417,-0.3711891969306001,-0.4650433330249724,0.8506148180950973,0.29499006271362305,-0.2980041205883026,0.5858638882637024,-0.32420337200164795,0.44846153259277344,-0.8329311609268188,0.08857715129852295,0.13166236877441406,-0.04737889766693115,1.0
11,1,485626.0818330417,-0.3657479177613168,-0.46030555154074365,0.8903914398444941,0.33182471990585327,-0.22519439458847046,0.6138697266578674,-0.3204226791858673,0.4442218840122223,-0.836657702922821,0.027972757816314697,0.0466686487197876,-0.033062756061553955,1.0
11,1,485626.1320650417,-0.3603447186579596,-0.46443200106589777,0.9246222506624342,0.03231658786535263,-0.19064147770404816,0.5638699531555176,-0.31524839997291565,0.44791504740715027,-0.8366543650627136,-0.014341473579406738,0.02268126606941223,-0.003799736499786377,1.0
11,1,485626.1823280417,-0.356946752276485,-0.4793914399688494,0.952288067185421,-0.20743019878864288,-0.21578608453273773,0.5984658002853394,-0.31002750992774963,0.4612393081188202,-0.8313490152359009,-0.018936723470687866,0.04228547215461731,0.02383863925933838,1.0
11,1,485626.2325600417,-0.35640784386057633,-0.5009720448221304,0.9812477331711593,-0.20217254757881165,-0.29531824588775635,0.6332842707633972,-0.306034654378891,0.4802783727645874,-0.8219948410987854,-0.01740589737892151,0.0605541467666626,0.0474281907081604,1.0
11,1,485626.2828220417,-0.35876720615897933,-0.5156676791126708,1.014244070064471,0.07743526995182037,-0.40054023265838623,0.6488489508628845,-0.3054618239402771,0.4931158125400543,-0.8145734071731567,-0.0076943039894104,0.07403814792633057,0.03744328022003174,1.0
11,1,485626.33308504167,-0.36078940519598546,-0.5136047621933413,1.0548124875417975,0.35220739245414734,-0.42151233553886414,0.6806513667106628,-0.30746686458587646,0.49132010340690613,-0.8149040341377258,-0.006620049476623535,0.06957769393920898,0.04950791597366333,1.0
11,1,485626.38331604167,-0.3587069177699421,-0.5154479660653879,1.098179739690835,0.17483001947402954,-0.36942949891090393,0.7495692372322083,-0.3054507076740265,0.49292466044425964,-0.8146932125091553,0.05546596646308899,0.04975414276123047,0.026164770126342773,1.0
11,1,485626.4335790417,-0.356576281204999,-0.5168366719225994,1.1461775416378814,0.4325064420700073,-0.46682843565940857,0.8161866664886475,-0.30347496271133423,0.49413245916366577,-0.8146998882293701,0.06310325860977173,0.09603172540664673,-0.024258852005004883,1.0
11,1,485626.4838110417,-0.35137061950648,-0.5110439249127257,1.2005470892851755,0.35853612422943115,-0.3549608588218689,0.855664849281311,-0.30020996928215027,0.4890880584716797,-0.8189424276351929,-0.020468711853027344,0.03532600402832031,-0.001812577247619629,1.0
11,1,485626.5340730417,-0.3389125392016344,-0.5168565240139059,1.250552700663486,0.11142631620168686,-0.20925165712833405,0.8279638886451721,-0.2890344560146332,0.49414971470832825,-0.8199237585067749,0.011171877384185791,0.05838629603385925,0.0449146032333374,1.0
11,1,485626.5843360417,-0.3263869513908933,-0.5309493399060566,1.298244815625263,-0.08374390006065369,-0.26760339736938477,0.9394717812538147,-0.27648162841796875,0.5063521862030029,-0.8168018460273743,0.07480621337890625,0.06168675422668457,0.09889107942581177,1.0
11,1,485626.6345680417,-0.3188332574522912,-0.5550779439135279,1.3519724165722067,-0.20474858582019806,-0.5053079128265381,1.0855978727340698,-0.2663958966732025,0.5270095467567444,-0.8070279359817505,0.11393007636070251,0.08332675695419312,0.1391812562942505,1.0
11,1,485626.6848300417,-0.3181039953979083,-0.5738816675902059,1.417204337119706,0.3044416606426239,-0.8395567536354065,1.2265526056289673,-0.26266106963157654,0.5428959727287292,-0.7976672649383545,0.13785940408706665,0.21528279781341553,0.05451846122741699,1.0
11,1,485626.73506204167,-0.3116244617373538,-0.5612266136755992,1.509455437679779,1.0421355962753296,-0.7873449325561523,1.493432879447937,-0.2595728933811188,0.5322250723838806,-0.8058277368545532,0.04387468099594116,0.21968233585357666,0.00013315677642822266,1.0
11,1,485626.7853250417,-0.28956750941345727,-0.5332454096239311,1.6212314215441215,1.0804280042648315,-0.6357454657554626,1.7570204734802246,-0.24589422345161438,0.5083308219909668,-0.8253094553947449,0.02403143048286438,0.1000370979309082,0.08228278160095215,1.0
11,1,485626.8355560417,-0.26053701406515084,-0.5148981839442776,1.732839162044342,0.5905969738960266,-0.45481666922569275,1.7282147407531738,-0.22419987618923187,0.49244624376296997,-0.8409703373908997,-0.007901549339294434,0.02636784315109253,-0.013170838356018066,1.0
11,1,485626.8858397917,-0.23427568661008152,-0.5201262648022129,1.8298010495777604,0.40860918164253235,-0.45357391238212585,1.5921590328216553,-0.20143967866897583,0.4969896972179413,-0.8440516591072083,-0.01332777738571167,0.09302186965942383,-0.08937424421310425,1.0
11,1,485626.9361017917,-0.20962065978558878,-0.5023322138139722,1.9240738033884326,0.8794471025466919,-0.3486776649951935,1.441551923751831,-0.1823819875717163,0.4814709424972534,-0.8572761416435242,-0.1319032907485962,0.13823425769805908,-0.08776170015335083,1.0
11,1,485626.9863337917,-0.19077487613329427,-0.47165854867362883,2.00586871419794,0.7625364065170288,-0.48013150691986084,1.203416347503662,-0.16891628503799438,0.4543643593788147,-0.874654233455658,-0.059965550899505615,-0.0643344521522522,0.09920263290405273,1.0
11,1,485627.0365967917,-0.19166975678460038,-0.45560390640535925,2.0721376315815316,0.41517895460128784,-0.7164548635482788,1.0112696886062622,-0.17106662690639496,0.44000470638275146,-0.8815507888793945,-0.03886379301548004,-0.12503275275230408,0.19231128692626953,1.0
11,1,485627.0868287917,-0.2078796908536058,-0.4397488352640428,2.127013893863628,0.8626240491867065,-0.7899636626243591,0.8070281147956848,-0.18674986064434052,0.4257121980190277,-0.8853775262832642,-0.1998620629310608,0.1192401647567749,-0.0019210577011108398,1.0
11,1,485627.1370907917,-0.2170257981892748,-0.39586582351779215,2.1812161953498386,1.081559658050537,-0.44326531887054443,0.7779134511947632,-0.19867345690727234,0.38560718297958374,-0.901019275188446,-0.19460657238960266,0.03480297327041626,0.06946104764938354,1.0
11,1,485627.18735379167,-0.2176113299365286,-0.36696275890181507,2.2279406210028507,0.4478525221347809,-0.3341522812843323,0.642444372177124,-0.20152369141578674,0.3587820529937744,-0.9114074110984802,-0.06155307590961456,-0.11979889869689941,0.16983026266098022,1.0
11,1,485627.2375857917,-0.23227075429393254,-0.35584436760880145,2.2531287650347926,0.31227657198905945,-0.6477857828140259,0.1654738038778305,-0.21576721966266632,0.34838196635246277,-0.9121810793876648,0.014549553394317627,-0.18970581889152527,0.2018997073173523,1.0
11,1,485627.2878477917,-0.27815821800131574,-0.3523599545247681,2.2449830428513122,-0.3509649932384491,-0.948847234249115,-0.3354603052139282,-0.2577148377895355,0.34511372447013855,-0.9024851322174072,-0.10761108994483948,-0.28812214732170105,0.09102272987365723,1.0
11,1,485627.3380797917,-0.3289049235200966,-0.39054614797659676,2.215525247143609,-1.1672958135604858,-0.5502374172210693,-0.16793204843997955,-0.2986848056316376,0.3806934952735901,-0.8751340508460999,-0.3867094814777374,-0.03595167398452759,0.037457048892974854,1.0
11,1,485627.3883417917,-0.342791151998989,-0.42659510805868267,2.2068525369869794,-0.21290245652198792,-0.016130153089761734,0.30382034182548523,-0.30599427223205566,0.41377344727516174,-0.8574140667915344,-0.30994200706481934,0.20820528268814087,0.10070019960403442,1.0
11,1,485627.4386047917,-0.33040803264651436,-0.4119238233765472,2.234694404624914,0.9126439690589905,-0.0022783763706684113,0.3938724994659424,-0.29729124903678894,0.4003729820251465,-0.866786777973175,-0.15273621678352356,0.047533512115478516,0.05979520082473755,1.0
11,1,485627.4888367917,-0.31826642835982116,-0.3702835621757582,2.2637885217529736,0.9236089587211609,0.0002914771903306246,0.08191637694835663,-0.2917122542858124,0.36187979578971863,-0.8854078054428101,-0.043233394622802734,-0.22342154383659363,0.07064950466156006,1.0
11,1,485627.5390987917,-0.330680484058727,-0.3665199830394021,2.264626059731415,-0.8270644545555115,-0.3941817879676819,-0.01759636402130127,-0.30312106013298035,0.35836872458457947,-0.8830002546310425,-0.09321069717407227,-0.25512775778770447,-0.09006798267364502,1.0
11,1,485627.58933079167,-0.36306431220105256,-0.46946784950056547,2.220988789580852,-3.2651848793029785,-0.2055918425321579,0.018700990825891495,-0.3167175054550171,0.4524117708206177,-0.8336747288703918,-0.1645599603652954,-0.16518032550811768,-0.06410664319992065,1.0
11,1,485627.6395937917,-0.40491725038148174,-0.6453901365703011,2.150641752659261,-3.6205697059631348,0.05905204266309738,0.2401733100414276,-0.31470710039138794,0.6015101671218872,-0.7342649698257446,-0.22604909539222717,0.1681126356124878,0.01980268955230713,1.0
11,1,485627.6898557917,-0.4369806549127486,-0.7622034638863241,2.0950880128733065,-1.230529546737671,-0.04617782682180405,0.14033259451389313,-0.30611151456832886,0.6905169486999512,-0.6553486585617065,-0.17321282625198364,0.17647218704223633,-0.021027684211730957,1.0
11,1,485627.7400877917,-0.4402579363524005,-0.7523559224772945,2.112268015476297,1.3472718000411987,-0.39814433455467224,0.1096787378191948,-0.3111405670642853,0.6833606958389282,-0.6604614853858948,-0.15446612238883972,0.04703176021575928,-0.00927722454071045,1.0
11,1,485627.7903497917,-0.4345044383559537,-0.6978115747394096,2.1624743565694278,0.8469290733337402,-0.5630596876144409,0.3492545783519745,-0.3225613236427307,0.6425423622131348,-0.6950491070747375,-0.08904451131820679,-0.06859827041625977,0.05407315492630005,1.0
11,1,485627.8405817917,-0.430554692950526,-0.7015336424222101,2.1976711940237323,-0.348871111869812,-0.27870747447013855,0.6514018774032593,-0.31881311535835266,0.6453899145126343,-0.6941395401954651,-0.13234350085258484,-0.15677297115325928,-0.1545085310935974,1.0
11,1,485627.89082900004,-0.4227115012815195,-0.7337059140401039,2.232455493044902,-0.3681223690509796,-0.24239642918109894,0.7905383706092834,-0.3046804964542389,0.6696265935897827,-0.6773254871368408,-0.110190749168396,0.14706957340240479,0.07008671760559082,1.0
11,1,485627.94109100004,-0.38748584105992895,-0.7251341039615433,2.294802204487188,1.5118408203125,-0.045456789433956146,0.7725421190261841,-0.2827957272529602,0.6632358431816101,-0.6929247379302979,-0.2542526125907898,0.3172634243965149,-0.08458685874938965,1.0
11,1,485627.99132300005,-0.32240828492363516,-0.6245835149784055,2.380486063900488,2.357459545135498,0.39239686727523804,0.29680943489074707,-0.257032185792923,0.5847594738006592,-0.7694092988967896,-0.12507840991020203,0.02411198616027832,0.02551281452178955,1.0
11,1,485628.041586,-0.2863494209013184,-0.5875892323258687,2.428934065646369,-0.10049678385257721,0.09139511734247208,0.7252922654151917,-0.23507913947105408,0.5543562173843384,-0.7983901500701904,-0.06011739373207092,-0.12457716464996338,-0.01740574836730957,1.0
11,1,485628.091818,-0.26412339183865235,-0.6006336803667324,2.4727117719451455,0.6754318475723267,-0.21074528992176056,0.88371741771698,-0.2153712511062622,0.5651653409004211,-0.7963687181472778,-0.016196131706237793,0.14824408292770386,0.07125580310821533,1.0
11,1,485628.14208,-0.24211553261357943,-0.5341953143930136,2.5449004142730756,2.0014050006866455,-0.33836907148361206,0.7821871638298035,-0.20635367929935455,0.5091486573219299,-0.8355749845504761,-0.00900888442993164,0.15749257802963257,0.12146365642547607,1.0
11,1,485628.192342,-0.2292106411639187,-0.4520582012194395,2.604212907653248,1.5317412614822388,-0.24759681522846222,0.5466232895851135,-0.20438571274280548,0.4368179142475128,-0.8760230541229248,0.05951876938343048,-0.04665067791938782,-0.0946190357208252,1.0
11,1,485628.24257400003,-0.22880763105714022,-0.4232693811018235,2.6319029644499765,-0.12441986054182053,-0.16591617465019226,0.30407124757766724,-0.20680004358291626,0.41074350476264954,-0.8879884481430054,0.16442638635635376,0.060753077268600464,-0.32209455966949463,1.0
11,1,485628.29283700004,-0.22903548122428222,-0.3744121110261966,2.660816735391178,2.2434158325195312,-0.6481822729110718,0.4431142807006836,-0.21130971610546112,0.36572542786598206,-0.906417727470398,0.3456480801105499,0.29844388365745544,0.26527392864227295,1.0
11,1,485628.34306900005,-0.25107092876393394,-0.2679026537794448,2.718915226708758,1.7050596475601196,-0.6894451379776001,0.595329225063324,-0.23957909643650055,0.2647095024585724,-0.9340935349464417,0.17111290991306305,-0.2637176513671875,0.21622854471206665,1.0
11,1,485628.39333100006,-0.269063458336131,-0.18843954843227717,2.7675789933635784,1.9895617961883545,-0.6307069659233093,0.48690322041511536,-0.2611229419708252,0.18732629716396332,-0.9469549059867859,0.046386003494262695,0.056127697229385376,-0.2159937024116516,1.0
11,1,485628.443594,-0.2786868578890509,-0.13030861922307246,2.802073352659905,0.9123039245605469,-0.14009685814380646,0.22485139966011047,-0.27276110649108887,0.12994015216827393,-0.953266441822052,0.06316637992858887,-0.050457119941711426,-0.139079749584198,1.0
11,1,485628.493826,-0.29665920629712433,-0.0632301741594436,2.8223198276093004,1.7871677875518799,-0.7156152129173279,-0.22211048007011414,-0.29174280166625977,0.06318804621696472,-0.9544073343276978,0.20958948135375977,-0.007234066724777222,-0.007903456687927246,1.0
11,1,485628.544088,-0.35141636225618095,0.01938196997944966,2.8457694584266604,0.6541240215301514,-0.9831496477127075,0.37583979964256287,-0.34416329860687256,-0.019380755722522736,-0.9387097358703613,0.09520086646080017,-0.5790384411811829,0.33531618118286133,1.0
11,1,485628.59432000003,-0.3790664080984383,0.072109315641393,2.898582424620039,1.8955557346343994,-0.396314799785614,0.6615065336227417,-0.36909162998199463,-0.07204683870077133,-0.9265962243080139,-0.07699906826019287,0.34168490767478943,-0.12011092901229858,1.0
11,1,485628.64458200004,-0.411260790872288,0.14745646720671238,2.971822618596938,1.4995688199996948,-0.5348511934280396,0.8272488713264465,-0.39542704820632935,-0.14692267775535583,-0.9066703915596008,-0.010121047496795654,0.052165597677230835,0.09401780366897583,1.0
11,1,485628.69484500005,-0.4534897752741165,0.19406501580754715,3.0310440061132193,1.3580291271209717,-0.6773057579994202,0.4423396587371826,-0.4298812747001648,-0.19284918904304504,-0.8820494413375854,-0.032872021198272705,-0.009985893964767456,0.10591113567352295,1.0
11,1,485628.74507700006,-0.49278940662385906,0.23735583140185448,3.065020270884515,0.8012821674346924,-0.5545366406440735,0.013887376524508,-0.45982134342193604,-0.23513342440128326,-0.8563156127929688,-0.09227216243743896,-0.10696864128112793,0.05004119873046875,1.0
11,1,485628.795339,-0.5234491549514854,0.2718438307470145,3.0814044233166396,0.5648554563522339,-0.4656584858894348,-0.06225276365876198,-0.4815138578414917,-0.26850801706314087,-0.8342947363853455,-0.07025924324989319,-0.07208341360092163,0.10840356349945068,1.0
11,1,485628.845571,-0.5477702347534792,0.29102763503770845,3.096207516375433,0.4049346446990967,-0.3991129994392395,0.1864154189825058,-0.4988856613636017,-0.28693678975105286,-0.8177897930145264,-0.035004109144210815,0.030680716037750244,0.15043139457702637,1.0
